File: src/old_TGA/Dy_TGA.csv
temperature,rate_3,rate_5,rate_10,rate_3_diff,rate_5_diff,rate_10_diff,rate_3_diff_reaction_0,rate_3_diff_reaction_1,rate_3_diff_reaction_2,rate_3_diff_reaction_3,rate_3_diff_reaction_4,rate_3_diff_reaction_5,rate_3_diff_cumulative,rate_5_diff_reaction_0,rate_5_diff_reaction_1,rate_5_diff_reaction_2,rate_5_diff_reaction_3,rate_5_diff_reaction_4,rate_5_diff_reaction_5,rate_5_diff_cumulative,rate_10_diff_reaction_0,rate_10_diff_reaction_1,rate_10_diff_reaction_2,rate_10_diff_reaction_3,rate_10_diff_reaction_4,rate_10_diff_reaction_5,rate_10_diff_cumulative
31.63192,99.99894,100.076,99.96317,0.000189379,0.0257306,-0.006491155,1.06E-07,1.48E-13,1.79E-05,2.16E-193,1.15E-36,6.83E-23,1.80E-05,3.33E-08,5.14E-20,3.00E-05,3.21E-201,1.96E-38,1.69E-27,3.00E-05,2.16E-08,8.19E-16,1.12E-06,4.32E-201,1.72E-53,3.65E-34,1.14E-06
34.49666,100.0006,100.032,99.98113,-0.000609271,0.003258976,-0.005929749,1.34E-07,2.17E-13,2.00E-05,1.30E-191,2.36E-36,1.03E-22,2.01E-05,4.27E-08,9.11E-20,3.32E-05,1.92E-199,4.01E-38,2.72E-27,3.33E-05,2.74E-08,1.23E-15,1.28E-06,1.94E-199,4.48E-53,6.47E-34,1.30E-06
37.36141,99.99758,100.0493,99.99625,0.001757532,-0.003167997,-0.002698396,1.70E-07,3.18E-13,2.24E-05,7.76E-190,4.83E-36,1.55E-22,2.25E-05,5.48E-08,1.62E-19,3.68E-05,1.15E-197,8.21E-38,4.38E-27,3.69E-05,3.48E-08,1.86E-15,1.45E-06,8.68E-198,1.16E-52,1.15E-33,1.49E-06
40.22615,99.98793,100.038,99.99171,0.001331061,0.002414206,0.00185953,2.16E-07,4.65E-13,2.50E-05,4.65E-188,9.88E-36,2.33E-22,2.53E-05,7.03E-08,2.87E-19,4.08E-05,6.90E-196,1.68E-37,7.06E-27,4.08E-05,4.42E-08,2.80E-15,1.66E-06,3.89E-196,3.02E-52,2.03E-33,1.70E-06
43.0909,99.99208,100.046,99.98998,-0.000443904,-0.000156828,0.001107999,2.75E-07,6.82E-13,2.80E-05,2.78E-186,2.02E-35,3.51E-22,2.83E-05,9.02E-08,5.08E-19,4.52E-05,4.13E-194,3.44E-37,1.14E-26,4.52E-05,5.61E-08,4.21E-15,1.89E-06,1.74E-194,7.86E-52,3.61E-33,1.94E-06
45.95564,99.99343,100.052,99.98957,-0.000913434,-0.002663677,-0.00097913,3.49E-07,9.99E-13,3.13E-05,1.67E-184,4.14E-35,5.28E-22,3.17E-05,1.16E-07,9.01E-19,5.00E-05,2.47E-192,7.04E-37,1.84E-26,5.01E-05,7.12E-08,6.34E-15,2.15E-06,7.82E-193,2.04E-51,6.40E-33,2.22E-06
48.82039,100,100.05,99.99414,-0.001528987,-0.001373326,-0.001330555,4.43E-07,1.46E-12,3.51E-05,9.99E-183,8.47E-35,7.95E-22,3.55E-05,1.48E-07,1.60E-18,5.54E-05,1.48E-190,1.44E-36,2.96E-26,5.56E-05,9.04E-08,9.54E-15,2.45E-06,3.50E-191,5.31E-51,1.13E-32,2.54E-06
51.68513,100,100.044,99.99875,0.000413865,0.001065205,0.003031044,5.62E-07,2.14E-12,3.92E-05,5.98E-181,1.73E-34,1.20E-21,3.98E-05,1.90E-07,2.83E-18,6.14E-05,8.87E-189,2.95E-36,4.77E-26,6.16E-05,1.15E-07,1.44E-14,2.79E-06,1.57E-189,1.38E-50,2.01E-32,2.90E-06
54.54988,99.99778,100.038,99.98497,-0.002088801,0.001088347,0.00235356,7.14E-07,3.14E-12,4.39E-05,3.58E-179,3.55E-34,1.80E-21,4.46E-05,2.44E-07,5.03E-18,6.80E-05,5.31E-187,6.03E-36,7.69E-26,6.82E-05,1.46E-07,2.16E-14,3.17E-06,7.04E-188,3.58E-50,3.57E-32,3.32E-06
57.41462,100.007,100.04,99.98492,-0.002317225,0.001165088,-0.000335385,9.06E-07,4.60E-12,4.91E-05,2.14E-177,7.26E-34,2.71E-21,5.00E-05,3.13E-07,8.92E-18,7.53E-05,3.18E-185,1.23E-35,1.24E-25,7.56E-05,1.85E-07,3.26E-14,3.62E-06,3.16E-186,9.31E-50,6.33E-32,3.80E-06
60.27937,100.012,100.042,99.98661,-0.001959111,0.000564782,-0.001293436,1.15E-06,6.74E-12,5.50E-05,1.28E-175,1.49E-33,4.09E-21,5.61E-05,4.02E-07,1.58E-17,8.34E-05,1.91E-183,2.53E-35,2.00E-25,8.38E-05,2.35E-07,4.90E-14,4.12E-06,1.41E-184,2.42E-49,1.12E-31,4.35E-06
63.14411,100.017,100.046,99.9925,-0.001214925,-0.001958021,-0.001007996,1.46E-06,9.88E-12,6.15E-05,7.69E-174,3.04E-33,6.15E-21,6.30E-05,5.16E-07,2.80E-17,9.24089E-05,1.14E-181,5.17E-35,3.22E-25,9.29246E-05,2.98E-07,7.38E-14,4.69E-06,6.34E-183,6.29E-49,1.99E-31,4.99E-06
66.00886,100.015,100.056,99.98916,0.00101953,-0.004253461,0.000857855,1.85E-06,1.45E-11,6.88E-05,4.61E-172,6.22E-33,9.27E-21,7.07E-05,6.62E-07,4.97E-17,0.000102362,6.84E-180,1.06E-34,5.19E-25,0.000103024,3.79E-07,1.11E-13,5.34E-06,2.84E-181,1.63E-48,3.53E-31,5.72E-06
68.8736,100.018,100.064,99.9854,-0.003601608,-0.001508914,0.00169383,2.35E-06,2.12E-11,7.70E-05,2.76E-170,1.27E-32,1.40E-20,7.93E-05,8.49E-07,8.82E-17,0.000113387,4.09E-178,2.17E-34,8.37E-25,0.000114236,4.81E-07,1.67E-13,6.09E-06,1.27E-179,4.24E-48,6.26E-31,6.57E-06
71.73835,100.034,100.057,99.9799,-0.002768787,0.00146336,0.000443476,2.99E-06,3.11E-11,8.61E-05,1.65E-168,2.61E-32,2.10E-20,8.91E-05,1.09E-06,1.56E-16,0.0001256,2.45E-176,4.43E-34,1.35E-24,0.000126689,6.11E-07,2.52E-13,6.93E-06,5.71E-178,1.10E-47,1.11E-30,7.54E-06
74.60309,100.032,100.055,99.98603,0.002056851,0.000225188,-0.000515182,3.80E-06,4.55E-11,9.64E-05,9.90E-167,5.33E-32,3.16E-20,1.00E-04,1.40E-06,2.77E-16,0.000139127,1.47E-174,9.07E-34,2.17E-24,0.000140524,7.75E-07,3.80E-13,7.90E-06,2.56E-176,2.87E-47,1.97E-30,8.67E-06
77.46784,100.027,100.058,99.98579,-0.000287564,0.00000431,-0.00245552,4.82E-06,6.67E-11,0.000107838,5.93E-165,1.09E-31,4.76E-20,0.000112658,1.79E-06,4.92E-16,0.000154111,8.79E-173,1.86E-33,3.51E-24,0.000155903,9.84E-07,5.71E-13,8.99E-06,1.15E-174,7.45E-47,3.49E-30,9.98E-06
80.33258,100.026,100.06,99.99966,0.001723844,0.000240108,-0.001040338,6.12E-06,9.77E-11,0.000120657,3.55E-163,2.23E-31,7.17E-20,0.000126776,2.30E-06,8.73E-16,0.000170708,5.27E-171,3.80E-33,5.65E-24,0.000173007,1.25E-06,8.60E-13,1.02E-05,5.14E-173,1.93E-46,6.20E-30,1.15E-05
83.19733,100.012,100.06,99.98791,0.003684998,0.001632934,0.00236661,7.77E-06,1.43E-10,0.000135,2.13E-161,4.57E-31,1.08E-19,0.000142769,2.95E-06,1.55E-15,0.000189092,3.15E-169,7.78E-33,9.11E-24,0.000192041,1.59E-06,1.30E-12,1.17E-05,2.31E-171,5.03E-46,1.10E-29,1.33E-05
86.06207,100.006,100.052,99.98576,0.000749259,0.001544161,0.002094066,9.86E-06,2.10E-10,0.000151047,1.27E-159,9.36E-31,1.63E-19,0.000160911,3.78E-06,2.74E-15,0.000209455,1.89E-167,1.59E-32,1.47E-23,0.000213238,2.01E-06,1.95E-12,1.33E-05,1.03E-169,1.31E-45,1.95E-29,1.53E-05
88.92682,100.01,100.049,99.97739,-0.002323238,0.000617585,0.001246428,1.25E-05,3.07E-10,0.000169002,7.62E-158,1.92E-30,2.45E-19,0.000181525,4.85E-06,4.87E-15,0.00023201,1.13E-165,3.26E-32,2.37E-23,0.000236863,2.56E-06,2.94E-12,1.51E-05,4.63E-168,3.39E-45,3.46E-29,1.77E-05
91.79156,100.02,100.046,99.97932,-0.000723231,-0.00106547,-0.002711564,1.59E-05,4.50E-10,0.00018909,4.57E-156,3.92E-30,3.69E-19,0.00020499,6.23E-06,8.63E-15,0.000256993,6.77E-164,6.67E-32,3.81E-23,0.000263219,3.25E-06,4.42E-12,1.72E-05,2.08E-166,8.82E-45,6.13E-29,2.05E-05
94.65631,100.014,100.05,99.98955,0.000345375,-0.000329449,0.0000856,2.02E-05,6.60E-10,0.000211565,2.73E-154,8.02E-30,5.55E-19,0.000231752,7.99E-06,1.53E-14,0.000284664,4.06E-162,1.36E-31,6.15E-23,0.000292651,4.12E-06,6.66E-12,1.96E-05,9.31E-165,2.29E-44,1.09E-28,2.38E-05
97.52105,100.0209,100.046,99.97785,-0.001686169,0.001863983,0.002717904,2.56E-05,9.67E-10,0.00023671,1.64E-152,1.64E-29,8.36E-19,0.00026234,1.02E-05,2.72E-14,0.000315313,2.43E-160,2.79E-31,9.91E-23,0.00032556,5.23E-06,1.00E-11,2.24E-05,4.17E-163,5.96E-44,1.93E-28,2.76E-05
100.3858,100.021,100.0408,99.9766,0.001028203,0.002600342,0.001371232,3.25E-05,1.42E-09,0.000264843,9.81E-151,3.36E-29,1.26E-18,0.000297384,1.31E-05,4.82E-14,0.00034926,1.46E-158,5.72E-31,1.60E-22,0.000362405,6.65E-06,1.51E-11,2.55E-05,1.87E-161,1.55E-43,3.42E-28,3.21E-05
103.251,100.017,100.033,99.972,-0.001902857,0.002377494,0.002511419,4.13E-05,2.08E-09,0.000296318,5.87E-149,6.88E-29,1.89E-18,0.000337632,1.69E-05,8.54E-14,0.000386859,8.71E-157,1.17E-30,2.58E-22,0.000403722,8.44E-06,2.27E-11,2.90E-05,8.39E-160,4.02E-43,6.06E-28,3.75E-05
106.115,100.033,100.028,99.96197,-0.000607059,-0.000776791,0.001984922,5.25E-05,3.04E-09,0.000331531,3.52E-147,1.41E-28,2.85E-18,0.000383985,2.16E-05,1.51E-13,0.000428503,5.22E-155,2.39E-30,4.15E-22,0.000450136,1.07E-05,3.42E-11,3.31E-05,3.76E-158,1.04E-42,1.08E-27,4.38E-05
108.98,100.021,100.035,99.96071,0.00232693,-0.0026136,0.001026574,6.66E-05,4.46E-09,0.000370927,2.11E-145,2.88E-28,4.29E-18,0.000437522,2.78E-05,2.69E-13,0.000474625,3.13E-153,4.90E-30,6.69E-22,0.000502378,1.36E-05,5.15E-11,3.77E-05,1.69E-156,2.72E-42,1.91E-27,5.13E-05
111.845,100.018,100.039,99.95654,-0.000139714,0.0000847,0.001275611,8.45E-05,6.53E-09,0.000415001,1.26E-143,5.90E-28,6.47E-18,0.00049955,3.56E-05,4.76E-13,0.000525708,1.87E-151,1.00E-29,1.08E-21,0.000561309,1.73E-05,7.76E-11,4.29E-05,7.55E-155,7.06E-42,3.38E-27,6.01786E-05
114.71,100.018,100.036,99.95528,-0.0000735,0.001245183,-0.000501372,0.000107332,9.56E-09,0.000464309,7.56E-142,1.21E-27,9.74E-18,0.00057165,4.57E-05,8.45E-13,0.000582282,1.12E-149,2.05E-29,1.74E-21,0.000627953,2.19E-05,1.17E-10,4.88771E-05,3.39E-153,1.83E-41,6.00E-27,7.08015E-05
117.574,100.018,100.034,99.95904,0.001641233,0.000176685,0.000536405,0.000136262,1.40E-08,0.000519471,4.53E-140,2.47E-27,1.47E-17,0.000655747,5.86E-05,1.50E-12,0.000644937,6.71E-148,4.20E-29,2.80E-21,0.000703525,2.78E-05,1.76E-10,5.56738E-05,1.52E-151,4.76E-41,1.06E-26,8.35092E-05
120.439,100.007,100.033,99.95235,0.00040813,0.000942734,0.001269986,0.000172988,2.05E-08,0.00058118,2.71E-138,5.05E-27,2.21E-17,0.000754189,7.52E-05,2.66E-12,0.000714325,4.02E-146,8.60E-29,4.52E-21,0.000789483,3.53E-05,2.65E-10,6.34155E-05,6.80E-150,1.24E-40,1.89E-26,9.87554E-05
123.304,100.013,100.027,99.95235,0.003293083,0.00213226,-0.00057079,0.000219607,3.01E-08,0.000650213,1.62E-136,1.03E-26,3.32E-17,0.00086985,9.64E-05,4.71E-12,0.000791169,2.41E-144,1.76E-28,7.28E-21,0.000887579,4.49E-05,3.99E-10,7.22336E-05,3.05E-148,3.22E-40,3.35E-26,0.000117101
126.1685,99.99029,100.023,99.95403,0.00392977,0.000232434,0.000196365,0.00027878,4.41E-08,0.000727436,9.72E-135,2.12E-26,5.00E-17,0.001006261,0.000123671,8.36E-12,0.000876265,1.44E-142,3.60E-28,1.17E-20,0.000999936,5.70E-05,6.00E-10,8.22776E-05,1.37E-146,8.36E-40,5.93E-26,0.00013924
129.033,99.99207,100.024,99.95021,0.000961146,0.002690573,0.002378489,0.000353885,6.46E-08,0.00081382,5.82E-133,4.33E-26,7.54E-17,0.00116777,0.000158635,1.48E-11,0.000970498,8.64E-141,7.37E-28,1.89E-20,0.001129133,7.23E-05,9.04E-10,9.37179E-05,6.13E-145,2.17E-39,1.05E-25,0.000166036
131.898,99.98107,100.008,99.94187,0.005540006,0.002303718,0.001373828,0.000449201,9.46E-08,0.000910448,3.49E-131,8.87E-26,1.13E-16,0.001359743,0.000203477,2.63E-11,0.001074845,5.17E-139,1.51E-27,3.05E-20,0.001278322,9.18E-05,1.36E-09,0.000106749,2.75E-143,5.64E-39,1.87E-25,0.000198559
134.763,99.96138,100.0136,99.94149,0.00619229,-0.000930423,0.002593865,0.000570154,1.39E-07,0.001018531,2.09E-129,1.81E-25,1.71E-16,0.001588824,0.000260983,4.66E-11,0.001190386,3.10E-137,3.09E-27,4.92E-20,0.00145137,0.000116554,2.05E-09,0.000121591,1.23E-141,1.47E-38,3.31E-25,0.000238146
137.627,99.94548,100.0112,99.92764,0.003815675,0.002454571,0.002392592,0.000723617,2.03E-07,0.001139423,1.25E-127,3.71E-25,2.57E-16,0.001863243,0.000334722,8.27E-11,0.001318318,1.86E-135,6.32E-27,7.93E-20,0.00165304,0.000147963,3.09E-09,0.000138496,5.52E-140,3.81E-38,5.87E-25,0.000286462
140.492,99.93897,99.9968,99.92852,0.004437025,0.003059502,-0.000234483,0.000918294,2.98E-07,0.001274637,7.49E-126,7.60E-25,3.87E-16,0.002193229,0.000429262,1.47E-10,0.001459963,1.11E-133,1.29E-26,1.28E-19,0.001889226,0.000187832,4.65E-09,0.00015775,2.47E-138,9.90E-38,1.04E-24,0.000345587
143.357,99.92583,99.9956,99.92726,0.002572345,0.002289656,0.000268318,0.001165197,4.36E-07,0.001425862,4.49E-124,1.56E-24,5.83E-16,0.002591495,0.000550452,2.60E-10,0.001616782,6.65E-132,2.65E-26,2.06E-19,0.002167234,0.000238434,7.00E-09,0.000179681,1.11E-136,2.57E-37,1.85E-24,0.000418121
146.222,99.92484,99.9864,99.92728,0.002753285,0.002796105,0.002415096,0.001478245,6.39E-07,0.001594986,2.69E-122,3.18E-24,8.78E-16,0.00307387,0.000705771,4.61E-10,0.00179039,3.99E-130,5.42E-26,3.32E-19,0.002496161,0.000302652,1.05E-08,0.000204658,4.97E-135,6.68E-37,3.27E-24,0.000507321
149.086,99.9048,99.97601,99.91684,0.005323641,0.004467713,0.003693895,0.001875012,9.36E-07,0.001784115,1.61E-120,6.52E-24,1.32E-15,0.003660063,0.000904771,8.18E-10,0.001982572,2.39E-128,1.11E-25,5.35E-19,0.002887344,0.000384143,1.59E-08,0.000233107,2.23E-133,1.74E-36,5.81E-24,0.000617265
151.951,99.89381,99.95841,99.90554,0.003849784,0.007013093,0.003703186,0.002377651,1.37E-06,0.001995604,9.64E-119,1.33E-23,1.99E-15,0.004374627,0.001159649,1.45E-09,0.002195301,1.43E-126,2.27E-25,8.63E-19,0.003354952,0.000487536,2.39E-08,0.000265507,9.99E-132,4.51E-36,1.03E-23,0.000753067
154.816,99.88041,99.93762,99.89425,0.005486743,0.006648868,0.003402721,0.003014033,2.01E-06,0.002232077,5.77E-117,2.73E-23,3.00E-15,0.00524812,0.001485941,2.57E-09,0.002430754,8.56E-125,4.64E-25,1.39E-18,0.003916697,0.000618694,3.60E-08,0.000302408,4.48E-130,1.17E-35,1.83E-23,0.000921137
157.6807,99.86415,99.92042,99.88548,0.009480428,0.005249745,0.003770534,0.003819139,2.94E-06,0.002496468,3.46E-115,5.59E-23,4.51E-15,0.006318551,0.001903413,4.56E-09,0.002691337,5.13E-123,9.50E-25,2.24E-18,0.004594754,0.000785035,5.41E-08,0.000344433,2.01E-128,3.05E-35,3.24E-23,0.001129523
160.545,99.8314,99.90683,99.87211,0.0102102,0.005875072,0.004215636,0.004836724,4.31E-06,0.002792042,2.07E-113,1.14E-22,6.79E-15,0.00763308,0.002437138,8.09E-09,0.002979701,3.07E-121,1.94E-24,3.61E-18,0.005416848,0.000995935,8.15E-08,0.000392294,9.00E-127,7.92E-35,5.74E-23,0.00138831
163.41,99.80556,99.88963,99.86123,0.0109812,0.005094612,0.004358633,0.006121314,6.32E-06,0.003122448,1.24E-111,2.34E-22,1.02E-14,0.009250082,0.003118835,1.43E-08,0.003298778,1.84E-119,3.98E-24,5.83E-18,0.006417627,0.00126323,1.23E-07,0.000446799,4.03E-125,2.06E-34,1.02E-22,0.001710152
166.275,99.76863,99.88024,99.84684,0.0131639,0.005688927,0.005912355,0.007740472,9.26E-06,0.003491747,7.42E-110,4.79E-22,1.54E-14,0.0112415,0.003988448,2.54E-08,0.003651793,1.10E-117,8.15E-24,9.39E-18,0.007640266,0.00160184,1.85E-07,0.000508869,1.81E-123,5.35E-34,1.81E-22,0.002110894
169.14,99.7321,99.85862,99.82992,0.0122829,0.0109139,0.004383902,0.0097774,1.36E-05,0.003904466,4.45E-108,9.80E-22,2.32E-14,0.0136954,0.005096039,4.51E-08,0.004042308,6.60E-116,1.67E-23,1.51E-17,0.009138392,0.002030538,2.78E-07,0.00057955,8.10E-122,1.39E-33,3.20E-22,0.002610366
172.004,99.69831,99.81536,99.82066,0.0156849,0.0123755,0.004099417,0.01233361,1.99E-05,0.004365645,2.66E-106,2.01E-21,3.49E-14,0.0167191,0.006503897,8.00E-08,0.00447424,3.95E-114,3.41E-23,2.44E-17,0.0109782,0.002572877,4.19E-07,0.000660035,3.63E-120,3.61E-33,5.68E-22,0.00323333
174.869,99.64749,99.78184,99.80106,0.0217694,0.0108537,0.009706025,0.0155316,2.91E-05,0.004880896,1.59E-104,4.11E-21,5.26E-14,0.0204417,0.00828888,1.42E-07,0.004951908,2.37E-112,6.98E-23,3.93E-17,0.01324093,0.003258329,6.31E-07,0.000751678,1.63E-118,9.38E-33,1.01E-21,0.004010638
177.734,99.57351,99.748,99.76426,0.0307058,0.0155346,0.009081854,0.0195172,4.27E-05,0.005456455,9.55E-103,8.40E-21,7.92E-14,0.0250163,0.0105447,2.52E-07,0.005480058,1.42E-110,1.43E-22,6.34E-17,0.016025,0.004123604,9.50E-07,0.000856023,7.30E-117,2.44E-32,1.79E-21,0.004980577
180.599,99.46696,99.69729,99.74796,0.03755887,0.0211735,0.005726817,0.0244602,6.25E-05,0.00609926,5.72E-101,1.72E-20,1.19E-13,0.0306219,0.0133839,4.46E-07,0.006063913,8.48E-109,2.92E-22,1.02E-16,0.0194482,0.005214216,1.43E-06,0.000974821,3.27E-115,6.33E-32,3.17E-21,0.006190468
183.4634,99.35734,99.6297,99.72923,0.0425267,0.0275327,0.007239806,0.0305536,9.16E-05,0.006817005,3.43E-99,3.52E-20,1.79E-13,0.0374622,0.016939,7.92E-07,0.006709205,5.08E-107,5.99E-22,1.65E-16,0.023649,0.00658619,2.15E-06,0.001110066,1.47E-113,1.65E-31,5.62E-21,0.00769841
186.328,99.22165,99.54109,99.70486,0.0532915,0.0317267,0.0108131,0.0380093,0.00013418,0.00761824,2.05E-97,7.20E-20,2.70E-13,0.0457617,0.0213619,1.40E-06,0.007422231,3.04E-105,1.23E-21,2.66E-16,0.0287855,0.008307942,3.24E-06,0.001264023,6.57E-112,4.28E-31,9.97E-21,0.009575208
189.193,99.05285,99.45144,99.6668,0.0640888,0.0369344,0.0138333,0.0470473,0.000196571,0.008512425,1.23E-95,1.47E-19,4.07E-13,0.05575631,0.02682036,2.49E-06,0.008209886,1.82E-103,2.51E-21,4.28E-16,0.0350327,0.0104621,4.88E-06,0.001439266,2.95E-110,1.11E-30,1.77E-20,0.0119062
192.058,98.86336,99.324,99.62543,0.0706143,0.0453367,0.0131641,0.0578798,0.000287956,0.009510051,7.36E-94,3.02E-19,6.13E-13,0.0676778,0.0334905,4.42E-06,0.009079733,1.09E-101,5.13E-21,6.90E-16,0.0425747,0.0131469,7.35E-06,0.001638718,1.32E-108,2.89E-30,3.14E-20,0.0147929
194.922,98.64732,99.184,99.5912,0.0787757,0.0513515,0.0158957,0.0706844,0.000421788,0.0106227,4.41E-92,6.17E-19,9.23E-13,0.0817289,0.0415429,7.83E-06,0.01004,6.54E-100,1.05E-20,1.11E-15,0.0515907,0.0164772,1.11E-05,0.001865696,5.92E-107,7.50E-30,5.56E-20,0.018354
197.787,98.40034,99.03024,99.53481,0.0971145,0.0586123,0.02203,0.0855692,0.000617746,0.0118632,2.64E-90,1.26E-18,1.39E-12,0.0980501,0.05112222,1.39E-05,0.0110998,3.91E-98,2.15E-20,1.79E-15,0.06223592,0.020584,1.67E-05,0.002123968,2.65E-105,1.95E-29,9.86E-20,0.02272461
200.652,98.08709,98.84653,99.46486,0.116156,0.0727389,0.0287811,0.102529,0.000904578,0.0132456,1.58E-88,2.59E-18,2.09E-12,0.116679,0.0623202,2.46E-05,0.0122689,2.34E-96,4.40E-20,2.89E-15,0.0746137,0.0256113,2.51E-05,0.002417804,1.19E-103,5.07E-29,1.75E-19,0.0280542
203.517,97.73303,98.61413,99.37113,0.139784,0.088461,0.0377369,0.121398,0.00132424,0.0147854,9.46E-87,5.29E-18,3.15E-12,0.137508,0.0751436,4.37E-05,0.01355805,1.40E-94,9.00E-20,4.66E-15,0.0887454,0.0317108,3.78E-05,0.002752047,5.33E-102,1.32E-28,3.10E-19,0.0345006
206.381,97.29857,98.34164,99.25099,0.157322,0.100824,0.0464542,0.14181,0.001937838,0.0164997,5.67E-85,1.08E-17,4.74E-12,0.160248,0.0894838,7.74766E-05,0.01497887,8.41E-93,1.84E-19,7.51E-15,0.10454,0.0390308,5.69E-05,0.003132178,2.39E-100,3.42E-28,5.50E-19,0.0422199
209.246,96.82824,98.02772,99.10292,0.182479,0.119753,0.0592324,0.163173,0.002834139,0.0184072,3.39E-83,2.22E-17,7.14E-12,0.184414,0.105095,0.000137383,0.016544,5.04E-91,3.77E-19,1.21E-14,0.121776,0.0477011,8.56E-05,0.003564408,1.07E-98,8.89E-28,9.76E-19,0.0513511
212.111,96.25683,97.65353,98.91548,0.206024,0.140919,0.0642385,0.184668,0.004141552,0.0205282,2.03E-81,4.54E-17,1.07E-11,0.209338,0.12159,0.00024358,0.0182671,3.02E-89,7.72E-19,1.95E-14,0.140101,0.0578112,1.29E-04,0.004055753,4.80E-97,2.31E-27,1.73E-18,0.0619959
214.9756,95.65537,97.23304,98.738,0.223664,0.156383,0.0728658,0.205289,0.006044759,0.0228849,1.22E-79,9.29E-17,1.62E-11,0.234219,0.138463,0.000431779,0.0201628,1.81E-87,1.58E-18,3.15E-14,0.159058,0.06938567,1.94E-04,0.004614146,2.15E-95,6.00E-27,3.07E-18,0.0741939
217.84,94.96756,96.76612,98.49105,0.251839,0.170023,0.0942612,0.223908,0.00880702,0.0255015,7.29E-78,1.90E-16,2.44E-11,0.258216,0.15513,0.0007651,0.0222471,1.08E-85,3.23E-18,5.07E-14,0.178142,0.0823572,0.000292165,0.005248531,9.65E-94,1.56E-26,5.44E-18,0.0878979
220.705,94.21285,96.25151,98.21062,0.277636,0.191804,0.109407,0.239365,0.0127989,0.028404,4.37E-76,3.89E-16,3.67E-11,0.280568,0.170991,0.001354842,0.0245369,6.48E-84,6.62E-18,8.18E-14,0.196882,0.0965459,0.000439718,0.005968996,4.33E-92,4.05E-26,9.65E-18,0.102955
223.57,93.366,95.65114,97.87083,0.305115,0.220585,0.12683,0.250577,0.0185317,0.0316206,2.62E-74,7.96E-16,5.53E-11,0.300729,0.185484,0.002396356,0.0270502,3.88E-82,1.35E-17,1.32E-13,0.214931,0.111649,0.000661645,0.006786879,1.94E-90,1.05E-25,1.71E-17,0.119097
226.435,92.44933,94.98345,97.47747,0.315051,0.23986,0.139319,0.256633,0.0266918,0.0351813,1.57E-72,1.63E-15,8.32E-11,0.318506,0.198134,0.004229813,0.0298064,2.32E-80,2.77E-17,2.12E-13,0.23217,0.127249,0.000995251,0.007714928,8.69E-89,2.74E-25,3.04E-17,0.135959
229.299,91.56279,94.30417,97.06054,0.323427,0.255495,0.1561194,0.256906,0.0381602,0.0391181,9.38E-71,3.33E-15,1.25E-10,0.334184,0.208565,0.007439114,0.0328257,1.39E-78,5.67E-17,3.42E-13,0.248829,0.14284,0.001496321,0.008767423,3.90E-87,7.11E-25,5.38E-17,0.153104
232.164,90.60993,93.54285,96.57292,0.347977,0.266807,0.168283,0.251137,0.0539941,0.0434651,5.62E-69,6.82E-15,1.89E-10,0.348596,0.216499,0.01300138,0.0361297,8.33E-77,1.16E-16,5.52E-13,0.26563,0.157874,0.002247989,0.009960344,1.75E-85,1.85E-24,9.55E-17,0.170083
235.029,89.59024,92.75696,96.08171,0.368654,0.279352,0.185373,0.239516,0.0753263,0.048258,3.36E-67,1.40E-14,2.84E-10,0.3631,0.221734,0.0224782,0.0397407,4.99E-75,2.38E-16,8.90E-13,0.283953,0.171809,0.003373487,0.0113115,7.83E-84,4.80E-24,1.69E-16,0.186494
237.894,88.50068,91.93111,95.51351,0.389169,0.29696,0.209255,0.222713,0.103138,0.0535338,2.01E-65,2.86E-14,4.28E-10,0.379385,0.224118,0.0381635,0.043682,2.99E-73,4.86E-16,1.43E-12,0.305964,0.184156,0.005054061,0.01284073,3.51E-82,1.25E-23,3.00E-16,0.202051
240.7583,87.35135,91.04809,94.89466,0.40449,0.336546,0.222666,0.201845,0.137883,0.05933088,1.21E-63,5.85E-14,6.44E-10,0.399059,0.223527,0.06292,0.0479773,1.79E-71,9.95E-16,2.31E-12,0.334425,0.19451,0.007553052,0.01457,1.57E-80,3.24E-23,5.33E-16,0.216633
243.623,86.17611,89.98974,94.2417,0.420583,0.397821,0.234547,0.178348,0.179053,0.0656883,7.23E-62,1.20E-13,9.69E-10,0.423089,0.219863,0.099208,0.0526511,1.07E-69,2.04E-15,3.73E-12,0.371722,0.202566,0.0112462,0.0165235,7.05E-79,8.42E-23,9.45E-16,0.230336
246.488,84.9307,88.77253,93.55554,0.451558,0.451331,0.247523,0.153783,0.224882,0.0726452,4.33E-60,2.45E-13,1.46E-09,0.45131,0.213068,0.147017,0.0577278,6.42E-68,4.17E-15,6.01E-12,0.417813,0.208111,0.0166547,0.0187279,3.16E-77,2.19E-22,1.68E-15,0.243494
249.353,83.57012,87.41314,92.82278,0.479958,0.490568,0.260367,0.129611,0.272481,0.0802403,2.59E-58,5.02E-13,2.20E-09,0.482333,0.203169,0.201872,0.0632318,3.85E-66,8.53E-15,9.69E-12,0.468272,0.211016,0.0244706,0.0212124,1.42E-75,5.69E-22,2.97E-15,0.256699
252.217,82.16853,85.96906,92.05781,0.516897,0.518402,0.264384,0.107006,0.318493,0.08851079,1.55E-56,1.03E-12,3.31E-09,0.51401,0.190328,0.255658,0.06918681,2.30E-64,1.75E-14,1.56E-11,0.515173,0.21122,0.0355511,0.0240085,6.35E-74,1.48E-21,5.27E-15,0.27078
255.082,80.62377,84.4609,91.29736,0.553884,0.547499,0.283969,0.08675556,0.359979,0.0974916,9.30E-55,2.10E-12,4.98E-09,0.544227,0.174898,0.300856,0.0756156,1.38E-62,3.57E-14,2.52E-11,0.55137,0.208718,0.0508406,0.0271504,2.85E-72,3.84E-21,9.35E-15,0.286709
257.947,79.00217,82.84894,90.44063,0.585314,0.565169,0.310937,0.0692559,0.395092,0.107214,5.57E-53,4.30E-12,7.50E-09,0.571562,0.157447,0.334162,0.0825391,8.26E-61,7.31E-14,4.06E-11,0.574148,0.203563,0.0711682,0.0306745,1.28E-70,9.98E-21,1.66E-14,0.305406
260.812,77.26695,81.22216,89.52465,0.610277,0.577196,0.330393,0.0545764,0.423102,0.117705,3.33E-51,8.80E-12,1.13E-08,0.595383,0.138736,0.356384,0.0899763,4.95E-59,1.50E-13,6.54E-11,0.585096,0.195873,0.0968997,0.03461949,5.72E-69,2.59E-20,2.94E-14,0.327392
263.676,75.52277,79.54016,88.54617,0.61323,0.587347,0.353398,0.042557,0.4426944,0.128986,2.00E-49,1.80E-11,1.70E-08,0.614237,0.119641,0.370155,0.0979433,2.96E-57,3.06E-13,1.05E-10,0.587739,0.185847,0.12752,0.0390257,2.57E-67,6.74E-20,5.21E-14,0.352392
266.541,73.7818,77.85548,87.49985,0.610448,0.584286,0.375117,0.0329048,0.436633,0.141068,1.20E-47,3.69E-11,2.56E-08,0.610606,0.101033,0.377914,0.106452,1.77E-55,6.27E-13,1.70E-10,0.585399,0.173776,0.161389,0.0439348,1.15E-65,1.75E-19,9.25E-14,0.379099
269.406,72.1465,76.18371,86.38605,0.47214,0.574275,0.39928,0.0252718,0.293744,0.153958,7.16E-46,7.54E-11,3.86E-08,0.472974,0.0836581,0.380384,0.115512,1.06E-53,1.28E-12,2.74E-10,0.579554,0.16005,0.195947,0.0493889,5.15E-64,4.55E-19,1.64E-13,0.405385
272.2705,71.15643,74.57668,85.21274,0.251017,0.556902,0.427687,0.0193078,0.0630255,0.167648,4.29E-44,1.54E-10,5.81E-08,0.249981,0.0680499,0.373412,0.125125,6.36E-52,2.63E-12,4.42E-10,0.566587,0.145147,0.228411,0.05543,2.31E-62,1.18E-18,2.91E-13,0.428988
275.135,70.57408,73.01438,83.94623,0.187765,0.529919,0.452292,0.0146913,0.006652571,0.182122,2.57E-42,3.16E-10,8.74E-08,0.203466,0.0544981,0.338851,0.135289,3.81E-50,5.37E-12,7.12E-10,0.528637,0.129604,0.256593,0.0620982,1.04E-60,3.07E-18,5.16E-13,0.448295
278,69.98979,71.58872,82.62812,0.214224,0.43649,0.466261,0.0111435,0.000624083,0.197349,1.54E-40,6.47E-10,1.32E-07,0.209117,0.0430704,0.242027,0.145995,2.28E-48,1.10E-11,1.15E-09,0.431092,0.113971,0.279346,0.0694309,4.64E-59,7.98E-18,9.15E-13,0.462748
280.865,69.35345,70.54273,81.27445,0.228259,0.304512,0.478866,0.008432173,5.7736E-05,0.213288,9.21E-39,1.32E-09,1.98E-07,0.221778,0.0336669,0.109966,0.157227,1.37E-46,2.25E-11,1.85E-09,0.300859,0.0987645,0.296454,0.07746089,2.08E-57,2.07E-17,1.62E-12,0.47268
283.729,68.6741,69.79405,79.88261,0.23982,0.237439,0.488826,0.006368761,5.33E-06,0.229881,5.52E-37,2.71E-09,2.98E-07,0.236255,0.0260825,0.0334693,0.168961,8.19E-45,4.61E-11,2.98E-09,0.228513,0.0844162,0.30813,0.0862146,9.33E-56,5.39E-17,2.88E-12,0.478761
286.594,67.97864,69.1432,78.48431,0.253793,0.232342,0.48667,0.004803534,4.91E-07,0.247058,3.30E-35,5.54E-09,4.49E-07,0.251863,0.0200632,0.008553209,0.181167,4.90E-43,9.43E-11,4.81E-09,0.209784,0.0712474,0.314321,0.0957101,4.18E-54,1.40E-16,5.10E-12,0.481279
289.459,67.2291,68.4466,77.11504,0.266018,0.24295,0.479751,0.003619116,4.52E-08,0.264739,1.98E-33,1.13E-08,6.76E-07,0.268359,0.0153466,0.002077185,0.193807,2.94E-41,1.93E-10,7.75E-09,0.211231,0.0594563,0.313865,0.105955,1.87E-52,3.64E-16,9.05E-12,0.479276
292.324,66.45933,67.74423,75.74424,0.281132,0.251626,0.469362,0.002724534,4.16E-09,0.282828,1.19E-31,2.32E-08,1.02E-06,0.285554,0.0116876,0.000497998,0.206834,1.76E-39,3.95E-10,1.25E-08,0.21902,0.0491259,0.303472,0.116944,8.40E-51,9.45E-16,1.60E-11,0.469543
295.188,65.62534,67.02808,74.42426,0.300634,0.255864,0.450858,0.002049813,3.82E-10,0.301223,7.10E-30,4.75E-08,1.53E-06,0.303275,0.008870949,0.000119017,0.220196,1.05E-37,8.08E-10,2.01E-08,0.229186,0.0402439,0.27724,0.128659,3.77E-49,2.46E-15,2.85E-11,0.446143
298.0532,64.73659,66.26983,73.16873,0.311548,0.264612,0.413651,0.001541466,3.51E-11,0.319814,4.25E-28,9.73E-08,2.31E-06,0.321358,0.006715678,2.84E-05,0.233832,6.31E-36,1.65E-09,3.24E-08,0.240576,0.0327287,0.229617,0.141065,1.69E-47,6.38E-15,5.05E-11,0.403411
300.918,63.83053,65.5119,72.06844,0.333354,0.267056,0.351855,0.001158777,3.23E-12,0.338484,2.55E-26,1.99E-07,3.48E-06,0.339646,0.005073989,6.79E-06,0.247679,3.78E-34,3.39E-09,5.23E-08,0.252759,0.0264551,0.164581,0.154111,7.57E-46,1.66E-14,8.95E-11,0.345147
303.783,62.8393,64.74074,71.1627,0.349851,0.272845,0.288882,0.000870863,2.97E-13,0.357117,1.52E-24,4.07E-07,5.23E-06,0.357993,0.003827859,1.62E-06,0.261667,2.26E-32,6.93E-09,8.43E-08,0.2654961,0.0212765,0.100094,0.167729,3.39E-44,4.31E-14,1.59E-10,0.289099
306.647,61.81956,63.94571,70.39522,0.362146,0.288147,0.247094,0.000654351,2.73E-14,0.375595,9.13E-23,8.34E-07,7.88E-06,0.376258,0.00288447,3.87E-07,0.275724,1.35E-30,1.42E-08,1.36E-07,0.278609,0.017041,0.052998,0.181835,1.52E-42,1.12E-13,2.82E-10,0.251874
309.512,60.75658,63.10061,69.725,0.383831,0.29666,0.228513,0.000491593,2.55E-15,0.393806,5.47E-21,1.71E-06,1.19E-05,0.394312,0.002171707,9.23E-08,0.289778,8.11E-29,2.90E-08,2.19E-07,0.29195,0.0136027,0.02564772,0.19633,6.82E-41,2.91E-13,4.99E-10,0.235581
312.377,59.62109,62.24894,69.07069,0.403903,0.309326,0.23635,0.000369275,2.22E-16,0.411645,3.27E-19,3.49E-06,1.79E-05,0.412036,0.001634002,2.20E-08,0.303754,4.86E-27,5.94E-08,3.53E-07,0.305389,0.0108287,0.0118217,0.211104,3.06E-39,7.56E-13,8.85E-10,0.233754
315.242,58.44321,61.34036,68.36367,0.420818,0.322621,0.248397,0.000277368,0.00E+00,0.429013,1.96E-17,7.15E-06,2.69E-05,0.429325,0.001228827,5.26E-09,0.317583,2.91E-25,1.22E-07,5.69E-07,0.318812,0.008601602,0.005320812,0.226036,1.37E-37,1.96E-12,1.57E-09,0.239959
318.106,57.22518,60.419,67.64761,0.44,0.333218,0.256842,0.000208321,0,0.445824,1.17E-15,1.46E-05,4.05E-05,0.446088,0.000923776,1.26E-09,0.331193,1.74E-23,2.49E-07,9.18E-07,0.332118,0.006820564,0.00236854,0.241002,6.14E-36,5.10E-12,2.79E-09,0.250192
320.971,55.92537,59.4376,66.89054,0.464993,0.343248,0.267985,0.000156455,0,0.461996,7.02E-14,2.99E-05,6.10E-05,0.462244,0.00069426,3.00E-10,0.344523,1.04E-21,5.09E-07,1.48E-06,0.345219,0.00540076,0.001049082,0.255876,2.75E-34,1.33E-11,4.94E-09,0.262325
323.836,54.55603,58.4355,66.10654,0.486664,0.354892,0.28077,0.000117497,0,0.477391,4.20E-12,6.12E-05,9.17963E-05,0.477662,0.000521658,7.16E-11,0.357512,6.25E-20,1.04E-06,2.38E-06,0.358038,0.004271753,0.000463614,0.270533,1.23E-32,3.45E-11,8.76E-09,0.275268
326.701,53.13858,57.40036,65.2836,0.499,0.370433,0.292919,8.82373E-05,0,0.491101,2.51E-10,0.000125154,0.000138179,0.491453,0.000391905,1.71E-11,0.370109,3.74E-18,2.13E-06,3.84E-06,0.370507,0.003375782,0.000204675,0.284858,5.53E-31,8.96E-11,1.55E-08,0.288438
329.5654,51.70864,56.32021,64.43078,0.498367,0.383067,0.303353,6.63E-05,0,0.493816,1.49E-08,0.000255648,0.000207969,0.494346,0.00029439,4.08E-12,0.382264,2.24E-16,4.36E-06,6.20E-06,0.382569,0.002665866,9.03E-05,0.298746,2.48E-29,2.33E-10,2.76E-08,0.301502
332.43,50.37344,55.21202,63.53758,0.40923,0.401192,0.313509,4.98E-05,0,0.408533,8.87E-07,0.000521164,0.000312942,0.409418,0.00022112,9.75E-13,0.39392,1.34E-14,8.93E-06,9.99E-06,0.39416,0.002104078,3.98E-05,0.312104,1.11E-27,6.05E-10,4.89E-08,0.314248
335.295,49.48016,54.02068,62.62666,0.151121,0.414577,0.324808,3.74E-05,0,0.135226,5.23E-05,0.001058174,0.000470754,0.136845,0.000166074,2.33E-13,0.404901,8.04E-13,1.83E-05,1.61E-05,0.405102,0.001659949,1.76E-05,0.324856,4.98E-26,1.57E-09,8.67E-08,0.326534
338.16,49.39721,52.82981,61.67884,0.011707,0.417713,0.338886,2.81E-05,0,0.0166219,0.002849125,0.002131208,0.000707817,0.0223381,0.000124725,5.56E-14,0.414189,4.81E-11,3.74E-05,2.59E-05,0.414377,0.001309115,7.75E-06,0.336942,2.23E-24,4.08E-09,1.54E-07,0.338259
341.024,49.29872,51.64382,60.68638,0.0393511,0.416201,0.348966,2.11E-05,0,0.001613488,0.0328812,0.004224451,0.001063513,0.03980372,9.36678E-05,1.32E-14,0.415105,2.88E-09,7.65E-05,4.18E-05,0.415317,0.001032147,3.42E-06,0.348319,1.00E-22,1.06E-08,2.73E-07,0.349355
343.889,49.19848,50.48839,59.66826,0.0433657,0.382134,0.360216,1.58E-05,0,0.00015241,0.0374346,0.008122923,0.001596266,0.047322,7.03E-05,3.20E-15,0.370461,1.72E-07,0.000156322,6.74E-05,0.370755,0.000813602,1.51E-06,0.358959,4.49E-21,2.76E-08,4.83E-07,0.359774
346.754,49.05141,49.55302,58.61133,0.0551728,0.221204,0.381057,1.19E-05,0,1.43E-05,0.03332603,0.0147925,0.00239212,0.0505369,5.28E-05,7.79E-16,0.203464,1.03E-05,0.000319103,0.000108622,0.203955,0.000641222,6.65E-07,0.368848,2.01E-19,7.16E-08,8.57E-07,0.369491
349.619,48.89267,49.23322,57.49693,0.0578577,0.0551863,0.3901,8.92E-06,0,1.35E-06,0.0277591,0.0246903,0.003576334,0.056036,3.97E-05,1.73E-16,0.0503389,0.000604272,0.000649652,0.000175008,0.0518075,0.000505297,2.94E-07,0.377982,9.01E-18,1.86E-07,1.52E-06,0.378489
352.483,48.72406,49.13993,56.39249,0.0631583,0.025247,0.397136,6.70E-06,0,1.26E-07,0.0214133,0.0366169,0.005328161,0.0633652,2.98E-05,0.00E+00,0.008379063,0.0184379,0.001315502,0.000281885,0.02844412,0.000398143,1.29E-07,0.386346,4.04E-16,4.84E-07,2.70E-06,0.386747
355.3481,48.52503,49.02886,55.2283,0.069697,0.0398176,0.403262,5.03E-06,0,1.18E-08,0.0152362,0.0477045,0.007897369,0.0708431,2.24E-05,0.00E+00,0.001280713,0.0360167,0.002635323,0.00045381,0.0404089,0.000313686,5.71E-08,0.393845,1.81E-14,1.26E-06,4.78E-06,0.394165
358.213,48.31722,48.91253,54.0846,0.0737488,0.0435446,0.396677,3.78E-06,0,1.11E-09,0.0100795,0.0554192,0.011618,0.0771205,1.68E-05,0.00E+00,1.93E-04,0.0352928,0.005169833,0.000730028,0.0414024,0.000247128,2.52E-08,0.400017,8.12E-13,3.27E-06,8.48E-06,0.400276
361.078,48.10098,48.78096,52.95805,0.0777437,0.04706877,0.387827,2.84E-06,0,1.03E-10,0.006298765,0.0589917,0.0169088,0.0822021,1.26E-05,0,2.90E-05,0.0328616,0.009753194,0.001172901,0.0438293,1.95E-04,1.11E-08,0.402836,3.64E-11,8.48E-06,1.50E-05,0.403055
363.942,47.87967,48.64301,51.86558,0.083273,0.049027,0.369967,2.13E-06,0,9.66E-12,0.003782534,0.0587716,0.0242401,0.0867964,9.47E-06,0,4.34E-06,0.0287877,0.0172038,0.001880685,0.04788601,1.53E-04,4.90E-09,0.394181,1.63E-09,2.20E-05,2.67E-05,0.394383
366.807,47.62491,48.49624,50.85116,0.0888406,0.053842,0.327334,1.60E-06,0,9.01E-13,0.002213988,0.0552138,0.03404331,0.0914727,7.11E-06,0,6.50E-07,0.0229617,0.0274241,0.003005979,0.0533996,1.21E-04,2.16E-09,0.347943,7.30E-08,5.72E-05,4.73E-05,0.348168
369.672,47.3629,48.33525,50.03442,0.0995861,0.05991703,0.237675,1.20E-06,0,8.40E-14,0.001275753,0.0486815,0.0465451,0.0965036,5.34E-06,0,9.73E-08,0.0162366,0.0385337,0.004780414,0.0595562,9.52E-05,9.54E-10,0.228872,3.27E-06,0.000148534,8.38403E-05,0.229202
372.537,47.05944,48.15623,49.50667,0.107552,0.0666894,0.100214,9.02E-07,0,7.81E-15,0.000728353,0.0398509,0.0615592,0.102139,4.01E-06,0,1.45E-08,0.0101516,0.0477273,0.007542436,0.0654254,7.50E-05,4.21E-10,0.0938123,1.46E-04,0.000384584,0.000148609,0.0945662
375.401,46.76233,47.95108,49.40958,0.112665,0.0732387,0.0322519,6.77E-07,0,7.02E-16,0.000413609,0.0300407,0.07834289,0.108798,3.01E-06,0,2.17E-09,0.005745064,0.0532956,0.01175624,0.0707999,5.90E-05,1.86E-10,0.0271269,0.005806677,0.000990184,0.000263305,0.0342461
378.266,46.42206,47.73563,49.27104,0.117263,0.0760388,0.0522751,5.09E-07,0,0.00E+00,0.000234156,0.0208838,0.09566248,0.116781,2.26E-06,0,3.24E-10,0.003042328,0.0550928,0.0179919,0.0761293,4.65E-05,8.18E-11,0.006854927,0.0450535,0.002513275,0.000466178,0.05493435
381.131,46.08341,47.51386,49.11203,0.1230815,0.0818114,0.0626465,3.82E-07,0,0.00E+00,0.000132332,0.0135495,0.112078,0.12576,1.70E-06,0,4.84E-11,0.001549976,0.0535608,0.02681535,0.0819278,3.66E-05,3.61E-11,0.001667798,0.0514547,0.006159724,0.000824285,0.0601432
383.996,45.70809,47.26259,48.91085,0.133772,0.0881403,0.0668115,2.87E-07,0,0,7.47E-05,0.008347944,0.125763,0.134186,1.28E-06,0,7.21E-12,0.000773472,0.0490647,0.0385406,0.0883801,2.89E-05,1.59E-11,0.000401749,0.0481192,0.0139477,0.001454133,0.0639516
386.8603,45.31348,47.00396,48.72661,0.140729,0.0926186,0.0711971,2.15E-07,0,0,4.22E-05,0.004966272,0.126958,0.131967,9.57E-07,0,1.07E-12,0.000381903,0.0420051,0.0528866,0.0952746,2.27E-05,7.02E-12,9.64931E-05,0.0417722,0.0271615,0.002554945,0.0716078
389.725,44.94382,46.73625,48.50418,0.0743655,0.101253,0.0797541,1.62E-07,0,0,2.38E-05,0.002889958,0.0663107,0.0692246,7.19E-07,0,1.60E-13,0.000187566,0.03324785,0.0687657,0.102202,1.79E-05,3.10E-12,2.31E-05,0.0323194,0.0427116,0.00445775,0.0795298
392.59,44.89005,46.42969,48.27253,0.003785167,0.105131,0.0812525,1.21E-07,0,0,1.34E-05,0.001659481,0.008781921,0.0104549,5.40E-07,0,2.38E-14,9.19E-05,0.0242146,0.0845058,0.108813,1.41E-05,1.37E-12,5.55E-06,0.0215247,0.05464703,0.007684964,0.0838763
395.455,44.87969,46.12782,48.03105,0.004149071,0.115324,0.0880442,9.12E-08,0,0,7.56E-06,0.000945511,0.00070722,0.001660386,4.05E-07,0,3.51703E-15,4.49E-05,0.016327,0.0984898,0.114862,1.11E-05,6.03E-13,1.33E-06,0.0123692,0.0608731,0.0129859,0.0862406
398.319,44.86934,45.77058,47.76885,0.002139627,0.123979,0.093929,6.85E-08,0,0,4.27E-06,0.0005363,5.36E-05,0.000594277,3.04E-07,0,4.70771E-16,2.20E-05,0.0103456,0.10973,0.120097,8.75E-06,2.66E-13,3.19E-07,0.006367228,0.0628619,0.0212516,0.0904898
401.184,44.86658,45.42293,47.49645,0.002551357,0.12494,0.10069,5.14E-08,0,0,2.41E-06,0.000303414,4.03E-06,0.000309896,2.29E-07,0,1.1811E-16,1.07E-05,0.006270534,0.117569,0.12385,6.89E-06,1.17E-13,7.63E-08,0.003068043,0.06203091,0.0331486,0.0982546
404.049,44.85279,45.0592,47.19613,0.004324398,0.118146,0.102883,3.86E-08,0,0,1.36E-06,0.000171407,3.01E-07,0.000173103,1.72E-07,0,0,5.25E-06,0.003691508,0.114183,0.11788,5.43E-06,5.17E-14,1.83E-08,0.00142813,0.0586486,0.0484389,0.108521
406.914,44.84796,44.75791,46.89518,0.000839117,0.0585685,0.113693,2.90E-08,0,0,7.65E-07,9.68E-05,2.24E-08,9.76E-05,1.29E-07,0,0,2.56E-06,0.002134503,0.0509428,0.05308002,4.27E-06,2.28E-14,4.37E-09,0.000653741,0.05223288,0.0654654,0.118356
409.778,44.84279,44.71299,46.53218,0.00270438,0.006877934,0.122666,2.18E-08,0,0,4.31E-07,5.46E-05,1.66E-09,5.50E-05,9.68E-08,0,0,1.25E-06,0.001221086,0.004742307,0.005964744,3.37E-06,1.00E-14,1.04E-09,0.000296929,0.0425416,0.0816437,0.124486
412.643,44.82521,44.6975,46.18898,0.005350457,0.004056946,0.126366,1.63E-08,0,0,2.43E-07,3.08E-05,1.23E-10,3.11E-05,7.27E-08,0,0,6.12E-07,0.000694221,0.000283433,0.000978339,2.65E-06,4.45E-15,2.50E-10,0.000134384,0.03080488,0.0948136,0.125755
415.508,44.81555,44.6866,45.82808,0.002864651,0.004878627,0.12673,1.23E-08,0,0,1.37E-07,1.74E-05,9.13E-12,1.75E-05,5.46E-08,0,0,2.99E-07,0.000393278,1.63E-05,0.000409948,2.09E-06,1.96E-15,5.97E-11,6.07E-05,0.0196834,0.103785,0.123532
418.372,44.80832,44.66784,45.48561,0.002880439,0.003855525,0.126719,9.22E-09,0,0,7.73E-08,9.79E-06,6.76E-13,9.88E-06,4.10E-08,0,0,1.46E-07,0.000222342,9.35E-07,0.000223463,1.64E-06,8.30E-16,1.43E-11,2.74E-05,0.0113189,0.104677,0.116025
421.237,44.7959,44.66975,45.13042,0.005559245,0.002298091,0.07675231,6.92E-09,0,0,4.36E-08,5.52E-06,5.00E-14,5.57E-06,3.08E-08,0,0,7.14E-08,1.26E-04,5.34E-08,1.26E-04,1.30E-06,3.77E-16,3.41E-12,1.24E-05,0.006053681,0.0739953,0.0800626
424.102,44.78279,44.6582,45.04665,0.005313144,0.003287863,0.0150535,5.20E-09,0,0,2.46E-08,3.11E-06,3.70E-15,3.14E-06,2.31E-08,0,0,3.49E-08,7.09E-05,3.05E-09,7.09E-05,1.02E-06,1.51E-16,8.16E-13,5.58E-06,0.00310123,0.0187274,0.0218352
426.967,44.77004,44.64714,45.02142,0.00372656,0.003563462,0.00292574,3.90E-09,0,0,1.39E-08,1.76E-06,2.64E-16,1.77E-06,1.74E-08,0,0,1.71E-08,4.00E-05,1.74E-10,4.00E-05,8.04E-07,7.54952E-17,1.95E-13,2.52E-06,0.00155204,0.002313495,0.003868859
429.831,44.75935,44.63702,45.01532,0.002695092,0.003752459,-0.001229573,2.93E-09,0,0,7.81E-09,9.90E-07,3.77291E-17,1.00E-06,1.30E-08,0,0,8.33E-09,2.25E-05,9.93E-12,2.26E-05,6.33E-07,0,4.65E-14,1.14E-06,0.000767439,0.000247935,0.001017145
432.696,44.75108,44.6274,45.02656,0.004366815,0.005145237,0.000308441,2.20E-09,0,0,4.41E-09,5.58E-07,0,5.65E-07,9.78E-09,0,0,4.07E-09,1.27E-05,5.66E-13,1.27E-05,4.99E-07,0,1.11E-14,5.13E-07,0.000377189,2.61E-05,0.000404281
435.561,44.7387,44.61274,45.01407,0.002870649,0.005258665,0.00306492,1.65E-09,0,0,2.48E-09,3.15E-07,0,3.19E-07,7.35E-09,0,0,1.99E-09,7.17E-06,3.23E-14,7.18E-06,3.93E-07,0,2.64E-15,2.32E-07,0.000184832,2.73E-06,0.00018819
438.426,44.73384,44.60102,45.0094,0.004421844,0.001358939,0.003439701,1.24E-09,0,0,1.40E-09,1.77E-07,0,1.80E-07,5.52E-09,0,0,9.72E-10,4.04E-06,1.83E-15,4.05E-06,3.09E-07,0,6.11E-16,1.04E-07,9.04E-05,2.86E-07,9.11E-05
441.29,44.71281,44.60422,44.99607,0.003748497,0.001411144,0.001785171,9.32E-10,0,0,7.90E-10,1.00E-07,0,1.02E-07,4.14E-09,0,0,4.75E-10,2.28E-06,1.20E-16,2.28E-06,2.44E-07,0,1.02E-16,4.71E-08,4.42E-05,3.00E-08,4.45E-05
444.1552,44.70936,44.58751,44.99981,-0.002167723,0.005571101,-0.001265413,7.00E-10,0,0,4.45E-10,5.64E-08,0,5.76E-08,3.11E-09,0,0,2.32E-10,1.29E-06,0.00E+00,1.29E-06,1.92E-07,0,0.00E+00,2.13E-08,2.16E-05,3.14E-09,2.18E-05
447.02,44.71074,44.57097,45.00278,0.002694588,0.004208382,0.000346615,5.25E-10,0,0,2.51E-10,3.18E-08,0,3.26E-08,2.34E-09,0,0,1.13E-10,7.25E-07,0,7.27E-07,1.51E-07,0,0.00E+00,9.60E-09,1.06E-05,3.28E-10,1.07E-05
449.885,44.69764,44.56502,44.99814,0.006368112,0.003348477,0.002452494,3.94E-10,0,0,1.42E-10,1.79E-08,0,1.85E-08,1.75E-09,0,0,5.54E-11,4.09E-07,0,4.10E-07,1.19E-07,0,0,4.33E-09,5.16E-06,3.43E-11,5.28E-06
452.749,44.68384,44.55183,44.98812,0.002396474,0.001905675,0.002973641,2.96E-10,0,0,7.98E-11,1.01E-08,0,1.05E-08,1.32E-09,0,0,2.71E-11,2.30E-07,0,2.32E-07,9.37E-08,0,0,1.95E-09,2.52E-06,3.59E-12,2.62E-06
455.614,44.68143,44.55229,44.981,0.0030907,0.002165888,0.000419293,2.22E-10,0,0,4.50E-11,5.70E-09,0,5.97E-09,9.89E-10,0,0,1.32E-11,1.30E-07,0,1.31E-07,7.38E-08,0,0,8.82E-10,1.23E-06,3.76E-13,1.31E-06
458.479,44.66491,44.53784,44.98518,0.004645959,0.00489486,-0.000187112,1.67E-10,0,0,2.54E-11,3.22E-09,0,3.41E-09,7.43E-10,0,0,6.46E-12,7.33E-08,0,7.40E-08,5.82E-08,0,0,3.98E-10,6.02E-07,3.93E-14,6.61E-07
461.344,44.66251,44.52776,44.98184,0.002906496,0.003119543,0.001294285,1.25E-10,0,0,1.43E-11,1.81E-09,0,1.95E-09,5.58E-10,0,0,3.16E-12,4.13E-08,0,4.19E-08,4.58E-08,0,0,1.80E-10,2.94E-07,4.10E-15,3.40E-07
464.208,44.6549,44.5206,44.9785,0.000565751,0.002887332,0.002291542,9.42E-11,0,0,8.07E-12,1.02E-09,0,1.12E-09,4.19E-10,0,0,1.54E-12,2.33E-08,0,2.37E-08,3.61E-08,0,0,8.10E-11,1.44E-07,4.26E-16,1.80E-07
467.073,44.65279,44.50879,44.968,0.002912857,0.001621927,0.001595072,7.07E-11,0,0,4.55E-12,5.77E-10,0,6.52E-10,3.14E-10,0,0,7.54E-13,1.31E-08,0,1.34E-08,2.84E-08,0,0,3.66E-11,7.02E-08,5.33E-17,9.87E-08
469.9379,44.63419,44.50585,44.96888,0.006257039,0.000949323,0.001311559,5.31E-11,0,0,2.57E-12,3.25E-10,0,3.81E-10,2.36E-10,0,0,3.68E-13,7.41E-09,0,7.64E-09,2.24E-08,0,0,1.65E-11,3.43E-08,0,5.67E-08
472.803,44.62178,44.50105,44.96136,0.003114242,0.002267942,0.001711032,3.99E-11,0,0,1.45E-12,1.83E-10,0,2.25E-10,1.77E-10,0,0,1.80E-13,4.18E-09,0,4.35E-09,1.76E-08,0,0,7.45E-12,1.68E-08,0,3.44E-08
475.667,44.61489,44.49463,44.9576,0.000806008,0.002588279,0.001931453,2.99E-11,0,0,8.16E-13,1.03E-10,0,1.34E-10,1.33E-10,0,0,8.79E-14,2.35E-09,0,2.49E-09,1.39E-08,0,0,3.36E-12,8.19E-09,0,2.21E-08
478.532,44.61351,44.49043,44.94717,0.003992906,0.003713914,0.002128131,2.25E-11,0,0,4.60E-13,5.83E-11,0,8.12E-11,1.00E-10,0,0,4.30E-14,1.33E-09,0,1.43E-09,1.09E-08,0,0,1.52E-12,4.00E-09,0,1.49E-08
481.397,44.59394,44.47706,44.94546,0.006675322,0.003105054,0.000594402,1.69E-11,0,0,2.59E-13,3.29E-11,0,5.00E-11,7.51E-11,0,0,2.10E-14,7.49E-10,0,8.24E-10,8.61E-09,0,0,6.84E-13,1.96E-09,0,1.06E-08
484.262,44.5811,44.46906,44.94506,0.005539058,0.00531166,0.002038302,1.27E-11,0,0,1.46E-13,1.85E-11,0,3.14E-11,5.64E-11,0,0,1.03E-14,4.22E-10,0,4.79E-10,6.78E-09,0,0,3.09E-13,9.56E-10,0,7.74E-09
487.126,44.56627,44.44338,44.93503,0.001046879,0.004560842,0.002312797,9.52E-12,0,0,8.25E-14,1.04E-11,0,2.01E-11,4.23E-11,0,0,5.01E-15,2.38E-10,0,2.80E-10,5.34E-09,0,0,1.39E-13,4.67E-10,0,5.81E-09
489.991,44.57007,44.44307,44.93208,0.002166104,0.002190873,0.001252473,7.15E-12,0,0,4.65E-14,5.89E-12,0,1.31E-11,3.18E-11,0,0,2.45E-15,1.34E-10,0,1.66E-10,4.21E-09,0,0,6.29E-14,2.28E-10,0,4.44E-09
492.856,44.55007,44.43389,44.92751,0.004720456,0.004245528,0.001466919,5.37E-12,0,0,2.62E-14,3.32E-12,0,8.72E-12,2.39E-11,0,0,1.20E-15,7.57E-11,0,9.95E-11,3.31E-09,0,0,2.84E-14,1.11E-10,0,3.43E-09
495.721,44.5445,44.41907,44.92534,0.002190643,0.005007582,0.001517699,4.03E-12,0,0,1.48E-14,1.87E-12,0,5.92E-12,1.79E-11,0,0,5.82E-16,4.27E-11,0,6.06E-11,2.61E-09,0,0,1.28E-14,5.45E-11,0,2.67E-09
498.585,44.53659,44.40595,44.91998,0.001472123,0.004358258,0.000884133,3.03E-12,0,0,8.33E-15,1.06E-12,0,4.09E-12,1.35E-11,0,0,2.87E-16,2.41E-11,0,3.75E-11,2.06E-09,0,0,5.78E-15,2.66E-11,0,2.08E-09
500.495,44.53659,44.39879,44.91998,0.000426645,0.00477235,-0.000271983,2.50E-12,0,0,5.69E-15,7.21E-13,0,3.23E-12,2.50E-12,0,0,5.69E-15,7.21E-13,0,3.23E-12,2.50E-12,0,0,5.69E-15,7.21E-13,0,3.23E-12