File: src/old_TGA/Er_TGA.csv
temperature,rate_3,rate_5,rate_10,rate_3_diff,rate_5_diff,rate_10_diff,rate_3_diff_reaction_0,rate_3_diff_reaction_1,rate_3_diff_reaction_2,rate_3_diff_reaction_3,rate_3_diff_reaction_4,rate_3_diff_reaction_5,rate_3_diff_cumulative,rate_5_diff_reaction_0,rate_5_diff_reaction_1,rate_5_diff_reaction_2,rate_5_diff_reaction_3,rate_5_diff_reaction_4,rate_5_diff_reaction_5,rate_5_diff_cumulative,rate_10_diff_reaction_0,rate_10_diff_reaction_1,rate_10_diff_reaction_2,rate_10_diff_reaction_3,rate_10_diff_reaction_4,rate_10_diff_reaction_5,rate_10_diff_cumulative
30.661,100,100,100,0,0,0,9.07E-07,9.17E-31,4.31E-06,6.26E-180,2.59E-50,4.28E-39,5.22E-06,3.85E-06,2.27E-11,1.99E-08,2.39E-146,5.92E-51,7.43E-32,3.87E-06,1.65E-07,5.15E-15,1.49E-10,1.33E-174,2.17E-54,1.06E-41,1.65E-07
33.52574,99.67082,100.385,99.62662,-0.000240858,-0.0107967,-0.005822477,1.07E-06,2.08E-30,4.83E-06,2.25E-178,6.74E-50,8.77E-39,5.91E-06,4.47E-06,3.03E-11,2.35E-08,4.20E-145,1.54E-50,1.32E-31,4.49E-06,1.97E-07,7.37E-15,1.83E-10,3.22E-173,5.63E-54,2.17E-41,1.97E-07
36.39049,99.68566,100.391,99.64989,-0.00344831,-0.003806889,-0.005520346,1.27E-06,4.71E-30,5.42E-06,8.07E-177,1.75E-49,1.79E-38,6.69E-06,5.20E-06,4.03E-11,2.79E-08,7.36E-144,4.00E-50,2.34E-31,5.23E-06,2.36E-07,1.05E-14,2.25E-10,7.76E-172,1.46E-53,4.43E-41,2.36E-07
39.25523,99.69003,100.416,99.65626,-0.003575234,-4.57155E-05,-0.001307624,1.50E-06,1.07E-29,6.08E-06,2.90E-175,4.55E-49,3.67E-38,7.58E-06,6.04E-06,5.37E-11,3.30E-08,1.29E-142,1.04E-49,4.14E-31,6.08E-06,2.82E-07,1.51E-14,2.76E-10,1.87E-170,3.80E-53,9.08E-41,2.82E-07
42.11998,99.6886,100.3999,99.65735,-0.003528528,0.002901899,-0.002103596,1.78E-06,2.42E-29,6.82E-06,1.04E-173,1.18E-48,7.52E-38,8.59E-06,7.03E-06,7.15E-11,3.90E-08,2.27E-141,2.70E-49,7.35E-31,7.07E-06,3.37E-07,2.16E-14,3.38E-10,4.51E-169,9.88E-53,1.86E-40,3.38E-07
44.98472,99.71263,100.398,99.6569,-0.004271157,-0.001725025,-0.001230152,2.11E-06,5.49E-29,7.64E-06,3.74E-172,3.07E-48,1.54E-37,9.75E-06,8.17E-06,9.52E-11,4.62E-08,3.98E-140,7.01E-49,1.30E-30,8.22E-06,4.04E-07,3.09E-14,4.15E-10,1.09E-167,2.57E-52,3.80E-40,4.04E-07
47.84947,99.72071,100.4051,99.66812,0.000493159,-0.002516815,-0.002879332,2.49E-06,1.25E-28,8.57E-06,1.34E-170,7.98E-48,3.15E-37,1.11E-05,9.50E-06,1.27E-10,5.47E-08,6.98E-139,1.82E-48,2.31E-30,9.56E-06,4.83E-07,4.42E-14,5.09E-10,2.63E-166,6.67E-52,7.78E-40,4.83E-07
50.71421,99.72274,100.41,99.66586,-0.002402001,-0.00134056,0.00055393,2.95E-06,2.82E-28,9.61E-06,4.82E-169,2.07E-47,6.44E-37,1.26E-05,1.10E-05,1.69E-10,6.47E-08,1.22E-137,4.74E-48,4.10E-30,1.11E-05,5.77E-07,6.32E-14,6.25E-10,6.34E-165,1.73E-51,1.59E-39,5.78E-07
53.57896,99.72387,100.4112,99.6704,-0.002539835,-0.000277694,-0.001048318,3.49E-06,6.40E-28,1.08E-05,1.73E-167,5.39E-47,1.32E-36,1.43E-05,1.28E-05,2.25E-10,7.66E-08,2.15E-136,1.23E-47,7.27E-30,1.29E-05,6.90E-07,9.04E-14,7.67E-10,1.53E-163,4.50E-51,3.26E-39,6.91E-07
56.4437,99.7355,100.423,99.66252,-0.001882354,3.14013E-05,0.000358101,4.13E-06,1.45E-27,1.21E-05,6.21E-166,1.40E-46,2.70E-36,1.62E-05,1.49E-05,3.00E-10,9.06E-08,3.77E-135,3.20E-47,1.29E-29,1.50E-05,8.26E-07,1.29E-13,9.41E-10,3.69E-162,1.17E-50,6.67E-39,8.27E-07
59.30845,99.73609,100.416,99.67501,-0.001847771,0.002400675,-0.002913153,4.89E-06,3.29E-27,1.36E-05,2.23E-164,3.64E-46,5.52E-36,1.84E-05,1.74E-05,3.99E-10,1.07E-07,6.61E-134,8.31E-47,2.29E-29,1.75E-05,9.88E-07,1.85E-13,1.15E-09,8.89E-161,3.04E-50,1.37E-38,9.89E-07
62.17319,99.74705,100.409,99.67113,-0.004124183,0.001835545,-0.001023184,5.79E-06,7.46E-27,1.52E-05,8.01E-163,9.45E-46,1.13E-35,2.10E-05,2.02E-05,5.31E-10,1.27E-07,1.16E-132,2.16E-46,4.06E-29,2.03E-05,1.18E-06,2.65E-13,1.42E-09,2.14E-159,7.90E-50,2.79E-38,1.18E-06
65.03794,99.75362,100.404,99.67755,-0.002314267,-0.000623711,-1.78724E-05,6.85E-06,1.69E-26,1.70E-05,2.88E-161,2.46E-45,2.31E-35,2.39E-05,2.35E-05,7.07E-10,1.5023E-07,2.03E-131,5.61E-46,7.19E-29,2.36308E-05,1.41E-06,3.79E-13,1.74E-09,5.17E-158,2.05E-49,5.72E-38,1.41E-06
67.90268,99.76222,100.407,99.67603,-0.001167759,-0.001618712,0.002163767,8.11E-06,3.83E-26,1.91E-05,1.03E-159,6.38E-45,4.73E-35,2.72E-05,2.73E-05,9.42E-10,1.77804E-07,3.57E-130,1.46E-45,1.28E-28,2.74793E-05,1.69E-06,5.42E-13,2.13E-09,1.25E-156,5.33E-49,1.17E-37,1.69E-06
70.76743,99.76073,100.42,99.66715,-0.001289901,0.001301907,0.000935603,9.59E-06,8.69E-26,2.14E-05,3.71E-158,1.66E-44,9.69E-35,3.10E-05,3.17E-05,1.25E-09,2.10439E-07,6.26E-129,3.79E-45,2.26E-28,3.19546E-05,2.02E-06,7.75E-13,2.62E-09,3.01E-155,1.39E-48,2.39E-37,2.02E-06
73.63217,99.77172,100.403,99.66764,-0.000123093,0.005553072,-0.001906517,1.14E-05,1.97E-25,2.40E-05,1.33E-156,4.31E-44,1.98E-34,3.54E-05,3.69E-05,1.67E-09,2.49064E-07,1.10E-127,9.84E-45,4.01E-28,3.71588E-05,2.42E-06,1.11E-12,3.21E-09,7.26E-154,3.60E-48,4.90E-37,2.42E-06
76.49692,99.76489,100.3916,99.67338,-0.00027249,0.002934976,-0.001815345,1.34E-05,4.47E-25,2.69571E-05,4.78E-155,1.12E-43,4.06E-34,4.03948E-05,4.29E-05,2.23E-09,2.94779E-07,1.93E-126,2.56E-44,7.12E-28,4.32105E-05,2.89E-06,1.59E-12,3.94E-09,1.75E-152,9.36E-48,1.00E-36,2.90E-06
79.36166,99.76815,100.388,99.68051,-0.000833662,0.001605161,-0.000680028,1.59E-05,1.01E-24,3.02299E-05,1.72E-153,2.91E-43,8.31E-34,4.6134E-05,4.99E-05,2.96E-09,3.48884E-07,3.38E-125,6.65E-44,1.26E-27,5.02479E-05,3.46E-06,2.27E-12,4.83E-09,4.22E-151,2.43E-47,2.05E-36,3.46E-06
82.22641,99.77467,100.384,99.67535,0.000234783,0.001002395,0.000717018,1.88E-05,2.30E-24,3.39E-05,6.16E-152,7.56E-43,1.70E-33,5.27232E-05,5.80E-05,3.95E-09,4.1292E-07,5.93E-124,1.73E-43,2.24E-27,5.84314E-05,4.14E-06,3.24E-12,5.93E-09,1.02E-149,6.32E-47,4.20E-36,4.14E-06
85.09115,99.764,100.376,99.67824,0.001227364,0.001958877,0.000952089,2.23E-05,5.20E-24,3.80157E-05,2.21E-150,1.96E-42,3.48E-33,6.02937E-05,6.75E-05,5.26E-09,4.88709E-07,1.04E-122,4.49E-43,3.97E-27,6.79476E-05,4.95E-06,4.64E-12,7.28E-09,2.46E-148,1.64E-46,8.60E-36,4.96E-06
87.9559,99.76429,100.373,99.67172,-0.000173491,0.001498687,0.002235105,2.64E-05,1.18E-23,4.26311E-05,7.95E-149,5.10E-42,7.12E-33,6.89979E-05,7.84E-05,7.00E-09,5.78409E-07,1.83E-121,1.17E-42,7.04E-27,7.90136E-05,5.92E-06,6.64E-12,8.93E-09,5.93E-147,4.27E-46,1.76E-35,5.93E-06
90.82064,99.76429,100.371,99.66551,-4.94335E-05,0.000767615,-2.57728E-05,3.12E-05,2.67E-23,4.78067E-05,2.85E-147,1.33E-41,1.46E-32,7.90128E-05,9.12E-05,9.32E-09,6.84573E-07,3.21E-120,3.03E-42,1.25E-26,9.18817E-05,7.08E-06,9.50E-12,1.10E-08,1.43E-145,1.11E-45,3.60E-35,7.09E-06
93.68539,99.76192,100.37,99.66667,0.000284208,-0.00257124,0.001274598,3.69E-05,6.06E-23,5.36107E-05,1.02E-145,3.45E-41,2.98E-32,9.05443E-05,1.06E-04,1.24E-08,8.10224E-07,5.62E-119,7.87E-42,2.21E-26,0.000106845,8.47E-06,1.36E-11,1.34E-08,3.45E-144,2.88E-45,7.37E-35,8.48E-06
96.55013,99.76518,100.38,99.66262,-0.000671681,-0.002094712,0.001540062,4.37E-05,1.37E-22,6.01192E-05,3.68E-144,8.96E-41,6.10E-32,0.000103831,1.23E-04,1.65E-08,9.58936E-07,9.87E-118,2.05E-41,3.93E-26,0.000124245,1.01E-05,1.94E-11,1.65E-08,8.32E-143,7.48E-45,1.51E-34,1.01E-05
99.41488,99.7648,100.384,99.6567,0.000617054,-0.001356325,0.001357568,5.17E-05,3.12E-22,6.74178E-05,1.32E-142,2.33E-40,1.25E-31,0.000119153,1.43E-04,2.20E-08,1.13494E-06,1.73E-116,5.32E-41,6.96E-26,0.000144479,1.21E-05,2.78E-11,2.02E-08,2.01E-141,1.94E-44,3.09E-34,1.21E-05
102.28,99.76553,100.389,99.65703,-0.000672269,-0.001693265,0.000338702,6.12E-05,7.07E-22,7.56024E-05,4.74E-141,6.05E-40,2.56E-31,0.000136832,1.67E-04,2.93E-08,1.34326E-06,3.04E-115,1.38E-40,1.24E-25,0.000168006,1.45E-05,3.98E-11,2.48E-08,4.84E-140,5.05E-44,6.32E-34,1.45E-05
105.144,99.76518,100.389,99.64816,-0.000222776,0.000423269,0.003055153,7.25E-05,1.60E-21,8.47805E-05,1.70E-139,1.57E-39,5.23E-31,0.000157248,1.94E-04,3.90E-08,1.58981E-06,5.33E-114,3.59E-40,2.19E-25,0.000195364,1.73E-05,5.69E-11,3.05E-08,1.17E-138,1.31E-43,1.29E-33,1.74E-05
108.009,99.76429,100.39,99.64346,-3.32485E-05,0.004092254,0.003390409,8.58E-05,3.63E-21,9.50727E-05,6.12E-138,4.08E-39,1.07E-30,0.000180839,2.25E-04,5.20E-08,1.88161E-06,9.35E-113,9.33E-40,3.88E-25,0.000227175,2.07E-05,8.14E-11,3.74E-08,2.81E-137,3.41E-43,2.65E-33,2.08E-05
110.874,99.76578,100.365,99.63054,0.001059154,0.005065872,0.001855325,1.02E-04,8.23E-21,0.000106614,2.20E-136,1.06E-38,2.19E-30,0.000208121,2.62E-04,6.92E-08,2.22696E-06,1.64E-111,2.42E-39,6.89E-25,0.000264163,2.48E-05,1.17E-10,4.59E-08,6.79E-136,8.87E-43,5.42E-33,2.48E-05
113.7386,99.76161,100.359,99.63055,0.000246134,0.001582834,-0.000486039,0.000120135,1.87E-20,0.000119556,7.89E-135,2.76E-38,4.49E-30,0.000239691,3.04E-04,9.22E-08,2.63571E-06,2.88E-110,6.30E-39,1.22E-24,0.000307171,2.97E-05,1.67E-10,5.63E-08,1.64E-134,2.30E-42,1.11E-32,2.97E-05
116.603,99.76471,100.354,99.63185,0.000153932,0.004386428,0.000359127,0.000142181,4.23E-20,0.000134069,2.83E-133,7.16E-38,9.18E-30,0.00027625,3.54E-04,1.23E-07,3.11948E-06,5.05E-109,1.64E-38,2.17E-24,0.000357176,3.55E-05,2.38E-10,6.91E-08,3.95E-133,5.99E-42,2.27E-32,3.55E-05
119.468,99.76104,100.337,99.62826,0.00138532,0.004714583,0.000207686,0.000168272,9.59E-20,0.000150344,1.02E-131,1.86E-37,1.88E-29,0.000318616,4.11E-04,1.64E-07,3.69204E-06,8.86E-108,4.25E-38,3.84E-24,0.000415315,4.24E-05,3.41E-10,8.48E-08,9.53E-132,1.56E-41,4.64E-32,4.25E-05
122.333,99.75865,100.325,99.62891,0.001813063,0.003173202,-0.002121741,0.000199149,2.17E-19,0.000168594,3.65E-130,4.84E-37,3.85E-29,0.000367743,4.78E-04,2.18E-07,4.3697E-06,1.55E-106,1.10E-37,6.82E-24,0.000482909,5.07E-05,4.88E-10,1.04E-07,2.30E-130,4.04E-41,9.50E-32,5.08359E-05
125.198,99.75094,100.32,99.63842,0.000926152,0.001518022,-0.000581093,0.000235691,4.93E-19,0.000189058,1.31E-128,1.26E-36,7.87E-29,0.000424749,0.000556031,2.90E-07,5.17173E-06,2.73E-105,2.87E-37,1.21E-23,0.000561492,6.07E-05,6.98E-10,1.28E-07,5.54E-129,1.05E-40,1.95E-31,6.08047E-05
128.062,99.7539,100.314,99.63676,-0.001346367,0.001726875,0.00247933,0.000278935,1.12E-18,0.000212005,4.71E-127,3.27E-36,1.61E-28,0.000490941,0.00064634,3.86E-07,6.12096E-06,4.78E-104,7.46E-37,2.14E-23,0.000652847,7.26E-05,9.99E-10,1.57E-07,1.34E-127,2.73E-40,3.98E-31,7.27278E-05
130.927,99.75361,100.31,99.62405,0.001225902,0.004161691,0.00318953,0.00033011,2.53E-18,0.000237737,1.69E-125,8.49E-36,3.30E-28,0.000567848,0.000751283,5.14E-07,7.24442E-06,8.39E-103,1.94E-36,3.80E-23,0.000759042,8.68E-05,1.43E-09,1.92289E-07,3.22E-126,7.09E-40,8.15E-31,8.69884E-05
133.792,99.75059,100.294,99.62204,0.002533312,0.003536655,0.003713359,0.00039067,5.75E-18,0.000266592,6.07E-124,2.20E-35,6.75E-28,0.000657262,0.000873221,6.85E-07,8.57409E-06,1.47E-101,5.04E-36,6.74E-23,0.00088248,0.000103806,2.04E-09,2.35951E-07,7.78E-125,1.84E-39,1.67E-30,0.000104044
136.657,99.73705,100.287,99.60409,0.002617597,0.002802799,0.002482774,0.000462332,1.30E-17,0.000298946,2.18E-122,5.73E-35,1.38E-27,0.000761279,0.001014888,9.12E-07,1.01478E-05,2.58E-100,1.31E-35,1.20E-22,0.001025948,0.00012415,2.92E-09,2.89526E-07,1.88E-123,4.79E-39,3.41E-30,0.000124443
139.521,99.73609,100.283,99.60465,0.001838554,0.00625136,-0.001063181,0.000547131,2.95E-17,0.000335226,7.82E-121,1.49E-34,2.83E-27,0.000882357,0.001179456,1.21E-06,1.20103E-05,4.53E-99,3.40E-35,2.12E-22,0.001192681,0.00014848,4.18E-09,3.55268E-07,4.52E-122,1.24E-38,6.98E-30,0.000148839
142.386,99.73312,100.245,99.60785,0.000620341,0.006508556,0.00147013,0.00064747,6.69E-17,0.000375906,2.81E-119,3.87E-34,5.78E-27,0.001023376,0.001370598,1.62E-06,1.42147E-05,7.95E-98,8.84E-35,3.76E-22,0.001386431,0.000177573,5.99E-09,4.35936E-07,1.09E-120,3.23E-38,1.43E-29,0.000178015
145.2508,99.72716,100.244,99.6012,0.001928634,0.002359093,0.003700329,0.000766192,1.52E-16,0.00042152,1.01E-117,1.01E-33,1.18E-26,0.001187712,0.001592568,2.15E-06,1.68237E-05,1.39E-96,2.30E-34,6.67E-22,0.001611546,0.000212363,8.56E-09,5.34922E-07,2.63E-119,8.40E-38,2.93E-29,0.000212906
148.116,99.72362,100.242,99.58804,0.002280154,0.004459085,0.002954683,0.000906657,3.44E-16,0.000472666,3.62E-116,2.61E-33,2.42E-26,0.001379322,0.001850281,2.87E-06,1.99115E-05,2.45E-95,5.97E-34,1.18E-21,0.001873061,0.000253961,1.22E-08,6.56383E-07,6.35E-118,2.18E-37,5.99E-29,0.00025463
150.98,99.71383,100.2199,99.58347,0.002160857,0.007205502,0.00171318,0.001072838,7.80E-16,0.000530012,1.30E-114,6.79E-33,4.96E-26,0.00160285,0.002149426,3.82E-06,2.3566E-05,4.29E-94,1.55E-33,2.10E-21,0.002176813,0.000303699,1.75E-08,8.05424E-07,1.53E-116,5.67E-37,1.23E-28,0.000304522
153.845,99.7168,100.199,99.57596,0.000802183,0.004359202,0.002689657,0.001269427,1.77E-15,0.000594311,4.67E-113,1.76E-32,1.01E-25,0.001863739,0.002496565,5.09E-06,2.78913E-05,7.53E-93,4.03E-33,3.72E-21,0.002529545,0.000363164,2.51E-08,9.88307E-07,3.69E-115,1.47E-36,2.51E-28,0.000364177
156.71,99.71198,100.195,99.56809,0.002659412,0.002684239,0.001803257,0.001501971,4.01E-15,0.000666404,1.68E-111,4.58E-32,2.08E-25,0.002168374,0.002899273,6.78E-06,3.30103E-05,1.32E-91,1.05E-32,6.60E-21,0.002939059,0.000434253,3.59E-08,1.21272E-06,8.91E-114,3.83E-36,5.13E-28,0.000435501
159.575,99.70284,100.189,99.56515,0.003337913,0.004368717,0.000736566,0.001777014,9.09E-15,0.000747232,6.02E-110,1.19E-31,4.25E-25,0.002524246,0.003366269,9.02E-06,3.90688E-05,2.32E-90,2.72E-32,1.17E-20,0.003414361,0.000519229,5.13E-08,1.48808E-06,2.15E-112,9.95E-36,1.05E-27,0.000520768
162.439,99.69101,100.172,99.56319,0.005292101,0.007694081,0.001387081,0.002102286,2.06E-14,0.000837854,2.16E-108,3.09E-31,8.70E-25,0.00294014,0.003907585,1.20E-05,4.62392E-05,4.07E-89,7.07E-32,2.08E-20,0.003965841,0.000620795,7.34E-08,1.82597E-06,5.18E-111,2.59E-35,2.15E-27,0.000622694
165.304,99.67791,100.153,99.55632,0.005211765,0.005267406,0.002727885,0.002486904,4.67E-14,0.000939451,7.76E-107,8.04E-31,1.78E-24,0.003426355,0.004534732,1.60E-05,5.47254E-05,7.14E-88,1.84E-31,3.68E-20,0.00460546,0.00074217,1.05E-07,2.24058E-06,1.25E-109,6.72E-35,4.40E-27,0.000744516
168.169,99.66039,100.137,99.55077,0.004752883,0.003916351,0.004455339,0.00294162,1.06E-13,0.001053351,2.79E-105,2.09E-30,3.64E-24,0.003994971,0.005260905,2.13E-05,6.4769E-05,1.25E-86,4.77E-31,6.53E-20,0.005346985,0.000887196,1.50E-07,2.74933E-06,3.02E-108,1.75E-34,9.01E-27,0.000890095
171.0335,99.65122,100.13,99.53474,0.003324503,0.00651433,0.004929658,0.0034791,2.40E-13,0.001181037,1.00E-103,5.43E-30,7.46E-24,0.004660137,0.00610117,2.84E-05,7.66555E-05,2.20E-85,1.24E-30,1.16E-19,0.006206206,0.001060444,2.15E-07,3.3736E-06,7.27E-107,4.54E-34,1.84E-26,0.001064033
173.898,99.64139,100.097,99.52427,0.006543179,0.0117009,0.005271875,0.004114262,5.44E-13,0.001324174,3.59E-102,1.41E-29,1.53E-23,0.005438436,0.007072705,3.78E-05,9.07233E-05,3.85E-84,3.22E-30,2.05E-19,0.007201222,0.001267359,3.07E-07,4.13962E-06,1.75E-105,1.18E-33,3.77E-26,0.001271806
176.763,99.61666,100.067,99.50565,0.008994847,0.0120521,0.003881867,0.004864643,1.23E-12,0.001484624,1.29E-100,3.67E-29,3.12E-23,0.006349267,0.008194998,5.03E-05,0.000107372,6.76E-83,8.37E-30,3.64E-19,0.008352701,0.001514409,4.40E-07,5.07957E-06,4.23E-104,3.06E-33,7.72E-26,0.001519929
179.628,99.58647,100.0323,99.49552,0.01017869,0.0113284,0.002308992,0.005750858,2.80E-12,0.001664472,4.63E-99,9.52E-29,6.39E-23,0.00741533,0.009490107,6.70E-05,0.000127076,1.19E-81,2.18E-29,6.46E-19,0.009684208,0.001809283,6.29E-07,6.23295E-06,1.02E-102,7.96E-33,1.58E-25,0.001816145
182.492,99.56408,99.99629,99.49289,0.008680665,0.0131795,0.002643006,0.006797081,6.34E-12,0.001866051,1.66E-97,2.47E-28,1.31E-22,0.008663133,0.0109828,8.93E-05,0.000150394,2.08E-80,5.65E-29,1.15E-18,0.0112225,0.00216109,9.00E-07,7.64821E-06,2.46E-101,2.07E-32,3.23E-25,0.002169638
185.357,99.52894,99.96584,99.48327,0.0125915,0.0136776,0.005334346,0.008031643,1.43806E-11,0.002091975,5.97E-96,6.43E-28,2.68E-22,0.0101236,0.012701,1.19E-04,0.000177991,3.65E-79,1.47E-28,2.03E-18,0.0129978,0.002580621,1.29E-06,9.38481E-06,5.94E-100,5.37E-32,6.62E-25,0.002591294
188.222,99.49842,99.9261,99.46789,0.0128577,0.0158823,0.006810699,0.009487645,3.26021E-11,0.002345163,2.15E-94,1.67E-27,5.48E-22,0.0118328,0.0146753,1.58E-04,0.000210649,6.41E-78,3.82E-28,3.60E-18,0.0150443,0.00308062,1.84E-06,1.15157E-05,1.43E-98,1.40E-31,1.35E-24,0.003093978
191.087,99.45519,99.87939,99.44674,0.0151519,0.0183665,0.005773295,0.0112037,7.3912E-11,0.002628886,7.70E-93,4.34E-27,1.12E-21,0.0138326,0.01694,2.11E-04,0.000249297,1.12E-76,9.92E-28,6.39E-18,0.0174001,0.003676112,2.64E-06,1.41305E-05,3.46E-97,3.63E-31,2.77E-24,0.003692878
193.951,99.41309,99.81743,99.43339,0.0158574,0.0230567,0.003966393,0.0132248,1.67565E-10,0.002946796,2.77E-91,1.13E-26,2.30E-21,0.0161716,0.01953216,2.81E-04,0.000295032,1.97E-75,2.58E-27,1.13E-17,0.0201078,0.004384743,3.77E-06,1.73389E-05,8.33E-96,9.43E-31,5.67E-24,0.004405852
196.816,99.36084,99.75396,99.41773,0.0216278,0.0267523,0.005512883,0.0156029,3.79886E-10,0.00330298,9.93E-90,2.93E-26,4.70E-21,0.0189059,0.0224919,3.74E-04,0.000349154,3.46E-74,6.70E-27,2.01E-17,0.0232147,0.005227188,5.39E-06,2.12757E-05,2.01E-94,2.45E-30,1.16E-23,0.005253857
199.681,99.2976,99.66894,99.4054,0.0247066,0.0305313,0.008669395,0.01839835,8.61237E-10,0.003701999,3.57E-88,7.62E-26,9.61E-21,0.0221003,0.0258618,4.98E-04,0.000413196,6.07E-73,1.74E-26,3.56E-17,0.0267726,0.006227537,7.72E-06,2.61065E-05,4.85E-93,6.37E-30,2.38E-23,0.00626136
202.5457,99.22366,99.58038,99.37265,0.0288058,0.0313087,0.0104833,0.0216802,1.95251E-09,0.004148952,1.28E-86,1.98E-25,1.97E-20,0.0258291,0.0296866,6.62E-04,0.000488977,1.07E-71,4.52E-26,6.32E-17,0.03083806,0.007413749,1.10E-05,3.20339E-05,1.17E-91,1.65E-29,4.86E-23,0.007456822
205.41,99.1298,99.4859,99.34588,0.0319256,0.0333422,0.0100173,0.0255275,4.42651E-09,0.004649524,4.60E-85,5.14E-25,4.03E-20,0.030177,0.0340117,8.82E-04,0.000578642,1.87E-70,1.17E-25,1.12E-16,0.0354722,0.008818031,1.58E-05,3.93071E-05,2.82E-90,4.30E-29,9.95E-23,0.008873131
208.275,99.0402,99.39011,99.31377,0.0383074,0.0420683,0.0110075,0.0300301,1.00353E-08,0.005210065,1.65E-83,1.34E-24,8.24E-20,0.0352402,0.0388821,0.001173934,0.000684732,3.28E-69,3.05E-25,1.99E-16,0.04074072,0.0104772,2.26E-05,4.82316E-05,6.80E-89,1.12E-28,2.04E-22,0.01054807
211.14,98.92174,99.26047,99.2775,0.0438694,0.049053,0.0140949,0.0352892,2.2751E-08,0.005837645,5.93E-82,3.47E-24,1.69E-19,0.04112685,0.0443403,0.001562426,0.000810247,5.75E-68,7.93E-25,3.53E-16,0.046713,0.0124331,3.23E-05,5.91819E-05,1.64E-87,2.90E-28,4.17E-22,0.0125246
214.005,98.7934,99.11875,99.23692,0.0493915,0.053957,0.01552827,0.0414175,5.15787E-08,0.00654015,2.13E-80,9.02E-24,3.45E-19,0.0479577,0.0504244,0.002079077,0.000958735,1.01E-66,2.06E-24,6.25E-16,0.0534622,0.0147325,4.62E-05,7.26182E-05,3.96E-86,7.54E-28,8.53E-22,0.0148514
216.869,98.65147,98.95977,99.18814,0.0560708,0.0586464,0.017182,0.0485394,1.16934E-07,0.007326348,7.64E-79,2.34E-23,7.07E-19,0.0558658,0.0571644,0.002765843,0.001134383,1.77E-65,5.36E-24,1.11E-15,0.0610646,0.0174271,6.61448E-05,8.91042E-05,9.55E-85,1.96E-27,1.75E-21,0.0175823
219.734,98.48999,98.7731,99.1431,0.0660826,0.071313,0.0188974,0.0567896,2.651E-07,0.008206002,2.74E-77,6.09E-23,1.45E-18,0.0649959,0.064579,0.00367819,0.001342144,3.11E-64,1.39E-23,1.97E-15,0.0695993,0.0205729,9.46221E-05,0.000109332,2.30E-83,5.09E-27,3.57E-21,0.0207768
222.599,98.27734,98.56501,99.081,0.0783929,0.0794697,0.0228109,0.0663114,6.01004E-07,0.009189945,9.85E-76,1.58E-22,2.96E-18,0.075502,0.0726714,0.004889225,0.001587857,5.45E-63,3.62E-23,3.49E-15,0.0791485,0.0242293,0.000135357,0.000134151,5.55E-82,1.32E-26,7.31E-21,0.0244989
225.464,98.04337,98.32692,99.01521,0.0890508,0.0882139,0.0286327,0.0772533,1.36253E-06,0.0102902,3.54E-74,4.11E-22,6.06E-18,0.0875449,0.0814246,0.00649502,0.001878418,9.56E-62,9.40E-23,6.19E-15,0.0897981,0.0284578,0.000193622,0.000164602,1.34E-80,3.44E-26,1.50E-20,0.0288161
228.3284,97.76868,98.06534,98.91865,0.102801,0.0969248,0.0346744,0.08976279,3.08898E-06,0.0115201,1.27E-72,1.07E-21,1.24E-17,0.101286,0.0907961,0.008621212,0.002221956,1.68E-60,2.44E-22,1.10E-14,0.101639,0.0333189,0.000276955,0.000201963,3.23E-79,8.93E-26,3.06E-20,0.0337978
231.193,97.46614,97.78251,98.81687,0.118108,0.115019,0.0383395,0.103978,7.00299E-06,0.0128945,4.56E-71,2.78E-21,2.54E-17,0.11688,0.100713,0.0114312,0.002628058,2.94E-59,6.35E-22,1.95E-14,0.114772,0.0388691,0.000396131,0.000247799,7.79E-78,2.32E-25,6.27E-20,0.039513
234.058,97.10227,97.41601,98.70769,0.142327,0.134085,0.0480007,0.120016,1.58763E-05,0.0144295,1.64E-69,7.22E-21,5.19E-17,0.134462,0.111065,0.0151355,0.003108007,5.16E-58,1.65E-21,3.45E-14,0.129309,0.0451567,0.000566537,0.000304032,1.88E-76,6.03E-25,1.28E-19,0.0460272
236.923,96.68087,97.03067,98.55149,0.162598,0.150354,0.05562,0.137949,3.59922E-05,0.0161432,5.88E-68,1.88E-20,1.06E-16,0.154129,0.121703,0.020003,0.003675086,9.06E-57,4.28E-21,6.12E-14,0.145381,0.0522165,0.000810147,0.000373017,4.53E-75,1.57E-24,2.63E-19,0.0533996
239.787,96.19204,96.58271,98.39232,0.181585,0.166411,0.0606725,0.157777,8.15937E-05,0.0180554,2.11E-66,4.87E-20,2.17E-16,0.175914,0.132429,0.0263714,0.004344903,1.59E-55,1.11E-20,1.09E-13,0.163145,0.0600637,0.001158298,0.000457639,1.09E-73,4.07E-24,5.38E-19,0.0616796
242.652,95.65484,96.07827,98.2127,0.200657,0.184123,0.0676149,0.179372,0.00018496,0.0201877,7.58E-65,1.27E-19,4.45E-16,0.199745,0.142994,0.0346565,0.005135785,2.79E-54,2.89E-20,1.92E-13,0.182786,0.0686878,0.001655637,0.000561439,2.64E-72,1.06E-23,1.10E-18,0.0709049
245.517,95.05568,95.54659,98.00484,0.226706,0.207566,0.0816798,0.202394,0.000419217,0.0225641,2.72E-63,3.29E-19,9.11E-16,0.225378,0.153097,0.0453568,0.006069204,4.89E-53,7.52E-20,3.41E-13,0.204523,0.0780466,0.002365643,0.000688749,6.36E-71,2.75E-23,2.25E-18,0.081101
248.382,94.38247,94.92206,97.75397,0.254822,0.243054,0.0949718,0.226146,0.000949865,0.0252103,9.78E-62,8.55E-19,1.86E-15,0.252306,0.162379,0.0590465,0.007170297,8.58E-52,1.95E-19,6.05E-13,0.228596,0.0880615,0.003378354,0.00084488,1.53E-69,7.14E-23,4.61E-18,0.0922847
251.246,93.61822,94.20622,97.48277,0.283836,0.270991,0.107655,0.249335,0.002150661,0.0281547,3.51E-60,2.22E-18,3.82E-15,0.279641,0.170429,0.0763504,0.008468393,1.51E-50,5.08E-19,1.07E-12,0.255248,0.09861382,0.004820975,0.001036333,3.70E-68,1.86E-22,9.43E-18,0.104471
254.111,92.79493,93.39098,97.14847,0.306903,0.300483,0.118104,0.269743,0.004861587,0.0314279,1.26E-58,5.77E-18,7.81E-15,0.306033,0.17679,0.09789244,0.009997665,2.64E-49,1.32E-18,1.90E-12,0.28468,0.109545,0.006872287,0.001271061,8.93E-67,4.82E-22,1.93E-17,0.117688
256.976,91.87498,92.49638,96.80793,0.334239,0.33136,0.131247,0.28387,0.0109495,0.0350629,4.53E-57,1.50E-17,1.60E-14,0.329882,0.180981,0.124208,0.0117978,4.64E-48,3.43E-18,3.38E-12,0.316986,0.120656,0.009781571,0.001558791,2.15E-65,1.25E-21,3.95E-17,0.131997
259.8406,90.8986,91.52348,96.40529,0.359056,0.362633,0.149165,0.28694,0.0244606,0.0390951,1.63E-55,3.90E-17,3.27E-14,0.350496,0.1825294,0.155621,0.0139146,8.13E-47,8.90E-18,5.99E-12,0.352065,0.131716,0.0138926,0.001911411,5.20E-64,3.26E-21,8.08E-17,0.14752
262.705,89.84211,90.46747,95.95295,0.3844804,0.395124,0.165186,0.27406,0.0536752,0.0435623,5.84E-54,1.01E-16,6.69E-14,0.371298,0.181029,0.192104,0.016401,1.43E-45,2.31E-17,1.06E-11,0.3895339,0.142461,0.0196718,0.002343429,1.25E-62,8.46E-21,1.65E-16,0.164476
265.57,88.72732,89.29094,95.46894,0.394355,0.433328,0.183844,0.243119,0.113436,0.0485047,2.10E-52,2.63E-16,1.37E-13,0.405059,0.176209,0.233147,0.0193175,2.50E-44,6.01E-17,1.88E-11,0.428673,0.152603,0.02773739,0.002872542,3.02E-61,2.20E-20,3.39E-16,0.183213
268.435,87.55559,88.0189,94.91591,0.457888,0.469234,0.203361,0.197927,0.222903,0.0539643,7.52E-51,6.84E-16,2.80E-13,0.474794,0.1680154,0.277697,0.0227332,4.39E-43,1.56E-16,3.34E-11,0.468446,0.161834,0.0388803,0.003520291,7.29E-60,5.71E-20,6.93E-16,0.204234
271.3,86.15666,86.63821,94.31782,0.60598,0.502188,0.22106,0.147741,0.388105,0.0599852,2.70E-49,1.78E-15,5.74E-13,0.595831,0.156677,0.324218,0.0267259,7.71E-42,4.06E-16,5.92E-11,0.507621,0.169822,0.0540614,0.004312865,1.76E-58,1.48E-19,1.42E-15,0.228196
274.164,84.22347,85.19005,93.66548,0.774079,0.529684,0.241888,0.102201,0.5766,0.0666126,9.70E-48,4.62E-15,1.17E-12,0.745413,0.142725,0.370872,0.031383,1.35E-40,1.05E-15,1.05E-10,0.54498,0.176215,0.0743551,0.005282019,4.24E-57,3.86E-19,2.90E-15,0.255852
277.029,81.90467,83.63134,92.94709,0.881041,0.568635,0.282392,0.0666458,0.733787,0.0738927,3.48E-46,1.20E-14,2.40E-12,0.874325,0.126952,0.4158,0.0368013,2.37E-39,2.74E-15,1.86E-10,0.579553,0.18064,0.100806,0.006466173,1.02E-55,1.00E-18,5.94E-15,0.287912
279.894,79.30618,81.97672,92.09451,0.9534595,0.60033,0.336911,0.0416749,8.34E-01,0.0818716,1.25E-44,3.12E-14,4.92E-12,0.957548,0.1103,0.457407,0.0430865,4.16E-38,7.12E-15,3.30E-10,0.610794,0.1827064,0.134168,0.007911631,2.47E-54,2.61E-18,1.22E-14,0.324786
282.759,76.53089,80.2022,91.05356,1.00391,0.637567,0.390628,0.02533099,8.87E-01,0.090595,4.49E-43,8.10E-14,1.01E-11,1.00302,0.0937143,0.494564,0.0503526,7.30E-37,1.85E-14,5.86E-10,0.638631,0.18203,0.174544,0.009674008,5.95E-53,6.77E-18,2.49E-14,0.366249
285.6233,73.6246,78.36429,89.90975,1.03284,0.667681,0.436894,0.0151084,9.11E-01,0.100106,1.61E-41,2.10E-13,2.06E-11,1.02632,0.0780025,0.526665,0.0587193,1.28E-35,4.81E-14,1.04E-09,0.663387,0.178273,0.221037,0.0118197,1.44E-51,1.76E-17,5.09E-14,0.411129
288.488,70.66377,76.41044,88.61342,1.03123,0.698588,0.477271,0.008896964,9.15E-01,0.110447,5.79E-40,5.47E-13,4.22E-11,1.03463,0.063747,0.553538,0.0683095,2.25E-34,1.25E-13,1.84E-09,0.685595,0.171213,0.271592,0.0144276,3.46E-50,4.57E-17,1.04E-13,0.457233
291.353,67.73102,74.40378,87.20555,0.996026,0.7164,0.511104,0.005192919,8.90E-01,0.121652,2.08E-38,1.42E-12,8.63E-11,1.01644,0.0512778,0.575101,0.0792449,3.94E-33,3.25E-13,3.27E-09,0.705623,0.160838,0.323241,0.0175906,8.35E-49,1.19E-16,2.13E-13,0.501669
294.218,64.94424,72.35719,85.71714,0.909081,0.730234,0.545865,0.00301154,7.82E-01,0.133752,7.47E-37,3.69E-12,1.77E-10,0.918437,0.0406991,0.590311,0.09164,6.92E-32,8.44E-13,5.80E-09,0.72265,0.147432,0.372719,0.0214171,2.01E-47,3.09E-16,4.37E-13,0.541567
297.082,62.49951,70.23322,84.11737,0.70488,0.728226,0.575961,0.001738037,5.16E-01,0.146771,2.68E-35,9.60E-12,3.62E-10,0.664194,0.0319467,5.93E-01,0.105595,1.21E-30,2.19E-12,1.03E-08,0.730923,0.131618,0.417209,0.0260319,4.86E-46,8.02E-16,8.94E-13,0.57486
299.947,60.65051,68.17842,82.44531,0.416883,0.695258,0.595429,0.00099926,2.12E-01,0.16072,9.63E-34,2.49E-11,7.40E-10,0.374179,0.0248512,5.61E-01,0.121189,2.13E-29,5.70E-12,1.82E-08,0.707421,0.114322,0.454851,0.0315769,1.17E-44,2.08E-15,1.83E-12,0.60075
302.812,59.81919,66.23273,80.72174,0.242969,0.627534,0.616121,0.000572754,6.14E-02,0.175603,3.46E-32,6.48E-11,1.51E-09,0.237527,0.0191916,4.39E-01,0.138464,3.74E-28,1.48E-11,3.23E-08,0.596553,0.0966247,0.4848,0.0382097,2.83E-43,5.41E-15,3.74E-12,0.619635
305.677,59.11083,64.56813,78.93792,0.241986,0.473076,0.634259,0.000327463,1.54E-02,0.191409,1.24E-30,1.68E-10,3.10E-09,0.207155,0.0147352,2.26E-01,0.157426,6.55E-27,3.85E-11,5.74E-08,0.398594,0.0795734,0.506916,0.0461015,6.82E-42,1.41E-14,7.66E-12,0.632591
308.541,58.36422,63.32255,77.1158,0.265067,0.273727,0.642055,0.000186828,3.73E-03,0.208113,4.46E-29,4.37E-10,6.34E-09,0.212028,0.0112618,7.48E-02,0.178024,1.15E-25,9.99E-11,1.02E-07,0.264114,0.06399976,0.521249,0.05543174,1.64E-40,3.66E-14,1.57E-11,0.64068
311.406,57.59484,62.80398,75.26704,0.270855,0.173617,0.642204,0.000106402,8.93E-04,0.225675,1.60E-27,1.14E-09,1.30E-08,0.226674,0.00857603,1.97E-02,0.200151,2.02E-24,2.60E-10,1.80E-07,0.228457,0.0504212,0.527487,0.0663801,3.97E-39,9.50E-14,3.21E-11,0.644288
314.271,56.81298,62.25293,73.43468,0.275741,0.209701,0.635187,6.05069E-05,2.13E-04,0.244039,5.75E-26,2.95E-09,2.66E-08,0.244313,0.006512124,4.84E-03,0.223637,3.54E-23,6.75E-10,3.20E-07,0.234994,0.0390376,0.524448,0.0791145,9.57E-38,2.47E-13,6.57E-11,0.6426
317.1355,56.0065,61.58264,71.62415,0.276201,0.252507,0.621144,3.43641E-05,5.09322E-05,0.263133,2.06E-24,7.67E-09,5.44E-08,0.263218,0.004933801,1.17E-03,0.248249,6.21E-22,1.75E-09,5.67E-07,0.25435,0.0297968,0.509723,0.09377547,2.31E-36,6.41E-13,1.34E-10,0.633295
320,55.23635,60.82809,69.85773,0.277717,0.278283,0.598835,1.94955E-05,1.21602E-05,0.282868,7.41E-23,1.99E-08,1.11E-07,0.2829,0.003731395,2.80E-04,0.273699,1.09E-20,4.56E-09,1.01E-06,0.277711,0.0224866,0.479807,0.110457,5.57E-35,1.67E-12,2.75E-10,0.61275
322.865,54.43918,60.01409,68.17284,0.287028,0.300429,0.570378,1.10499E-05,2.90317E-06,0.303143,2.66E-21,5.18E-08,2.28E-07,0.303157,0.002818078,6.69E-05,0.299655,1.91E-19,1.18E-08,1.78E-06,0.302542,0.0168198,0.431403,0.129185,1.34E-33,4.33E-12,5.63E-10,0.577408
325.73,53.6061,59.12474,66.57949,0.299113,0.326238,0.531951,6.26E-06,6.93112E-07,0.323842,9.55E-20,1.34644E-07,4.66101E-07,0.323849,0.002125957,1.60E-05,0.325757,3.35E-18,3.08E-08,3.16E-06,0.327903,0.0124953,0.36441,0.149896,3.24E-32,1.13E-11,1.15E-09,0.526802
328.594,52.73813,58.18191,65.08531,0.318138,0.34716,0.484545,3.54E-06,1.65474E-07,0.344837,3.43E-18,3.49843E-07,9.53927E-07,0.344842,0.001602412,3.83E-06,0.351638,5.88E-17,7.99E-08,5.61E-06,0.35325,0.009234429,2.85E-01,0.172425,7.81E-31,2.92E-11,2.36E-09,0.466768
331.459,51.81401,57.15812,63.7445,0.343568,0.367956,0.423803,2.00E-06,3.95058E-08,0.365994,1.23E-16,9.08935E-07,1.95231E-06,0.365999,0.001206954,9.14E-07,0.37694,1.03E-15,2.08E-07,9.95E-06,0.378158,0.006797685,2.06E-01,0.196492,1.88E-29,7.60E-11,4.83E-09,0.408809
334.324,50.79793,56.10666,62.58093,0.368054,0.386205,0.361511,1.13E-06,9.43166E-09,0.387164,4.42E-15,2.36131E-06,3.9956E-06,0.387172,0.000908582,2.18E-07,0.40134,1.81E-14,5.40E-07,1.77E-05,0.402267,0.00498912,1.37E-01,0.221711,4.54E-28,1.97E-10,9.88E-09,0.364116
337.189,49.72306,54.95262,61.61983,0.393567,0.410486,0.310304,6.40E-07,2.25174E-09,0.40816,1.58535E-13,6.13328E-06,8.17729E-06,0.408175,0.000683664,5.22E-08,0.42456,3.17E-13,1.40E-06,3.13E-05,0.425276,0.003653607,8.65E-02,0.24761,1.10E-26,5.13E-10,2.02E-08,0.337809
340.053,48.5799,53.74971,60.7499,0.414797,0.434202,0.297724,3.62E-07,5.37582E-10,0.428615,5.68547E-12,1.59255E-05,1.67352E-05,0.428648,5.14E-04,1.25E-08,0.446376,5.56E-12,3.64E-06,5.55E-05,0.44695,0.002671139,5.22E-02,0.27366,2.64E-25,1.33E-09,4.14E-08,0.328577
342.9182,47.36652,52.47028,59.88842,0.437002,0.461507,0.309478,2.04E-07,1.28344E-10,0.447316,2.03672E-10,4.13259E-05,3.4248E-05,0.447391,3.87E-04,2.98E-09,0.46661,9.74E-11,9.46701E-06,9.84E-05,0.467105,0.001950433,3.07E-02,0.299319,6.38E-24,3.46E-09,8.47E-08,0.331952
345.783,46.11108,51.12518,58.97511,0.44899,0.485364,0.333744,1.15E-07,3.0641E-11,4.59E-01,7.28147E-09,0.000107113,7.00825E-05,0.459375,2.91E-04,7.10E-10,0.485027,1.70E-09,2.45932E-05,0.000174534,0.485517,0.001422853,1.77E-02,0.324072,1.54E-22,9.00E-09,1.73E-07,0.343212
348.648,44.81515,49.72441,58.00141,0.455474,0.50321,0.353444,6.51E-08,7.3152E-12,4.44E-01,2.59335E-07,0.00027699,0.00014339,0.444332,2.19E-04,1.70E-10,0.500737,2.96946E-08,6.3866E-05,0.00030938,0.501329,0.001037257,1.01E-02,0.347468,3.71E-21,2.34E-08,3.55E-07,0.358633
351.512,43.59184,48.27037,56.96816,0.351134,0.508719,0.375318,3.67E-08,1.74643E-12,3.48E-01,9.17164E-06,0.000712975,0.000293287,0.349306,1.64E-04,4.05E-11,0.508615,5.15484E-07,0.000165723,0.000548196,0.509493,0.00075576,5.76E-03,0.369139,8.95E-20,6.08E-08,7.26E-07,0.375651
354.377,42.6181,46.83902,55.86854,0.174885,0.484916,0.39428,2.07E-08,4.16884E-13,1.71E-01,0.000319346,0.001817627,0.000599509,0.174175,1.23E-04,9.67E-12,0.481072,8.87727E-06,0.000429219,0.000970694,0.482604,0.00055044,3.26E-03,0.388796,2.16E-18,1.58E-07,1.49E-06,0.392608
357.242,42.41625,45.53172,54.72959,0.0660289,0.308652,0.40988,1.17E-08,9.9446E-14,5.25E-02,0.009846042,0.004539744,0.001223892,0.0681462,9.27E-05,2.31E-12,3.35E-01,0.000150671,0.001106659,0.001716744,0.337795,0.00040078,1.84E-03,0.406195,5.21E-17,4.10E-07,3.04E-06,0.408442
360.107,42.1863,44.85721,53.53775,0.0916624,0.118609,0.426298,6.60E-09,2.36677E-14,1.30E-02,0.07212166,0.0108486,0.002492061,0.0984176,6.96E-05,5.51282E-13,1.17E-01,0.002456272,0.002822341,0.003029723,0.125434,2.92E-04,1.04E-03,0.421058,1.26E-15,1.07E-06,6.22E-06,0.422398
362.971,41.89556,44.68764,52.31722,0.107215,0.0625177,0.437868,3.72E-09,5.60552E-15,3.00E-03,0.0773554,0.0236363,0.005047624,0.10904,5.23E-05,1.31608E-13,2.41E-02,0.0296102,0.007012206,0.005326952,0.0661107,2.12E-04,5.87E-04,0.432918,3.03E-14,2.77E-06,1.27E-05,0.433733
365.836,41.57383,44.38841,51.04666,0.115809,0.121591,0.444388,2.10E-09,1.45328E-15,6.84E-04,0.0619917,0.04329921,0.0101167,0.116091,3.93E-05,3.14124E-14,4.23E-03,0.0841549,0.0164006,0.009305281,0.114132,1.55E-04,3.31E-04,0.440827,7.30E-13,7.20E-06,2.61E-05,0.441346
368.701,41.23737,44.03471,49.7769,0.126605,0.131298,0.439157,1.19E-09,4.15223E-16,1.55E-04,0.0448267,0.06119161,0.0198628,0.126036,2.95E-05,7.56239E-15,7.19E-04,0.078331,0.0337843,0.0160743,0.128939,1.12E-04,1.87E-04,0.442867,1.76E-11,1.87034E-05,5.33E-05,0.443239
371.566,40.86116,43.63035,48.52573,0.137835,0.13866,0.433796,6.68E-10,0,3.50E-05,0.0294854,0.0651784,0.0375192,0.132218,2.22E-05,1.74519E-15,1.21E-04,0.05909852,0.055846,0.0272526,0.142341,8.18E-05,1.05E-04,0.435423,4.24E-10,4.85861E-05,0.000109104,0.435767
374.4304,40.45631,43.24909,47.30815,0.146047,0.148965,0.4119632,3.77E-10,0,7.90E-06,0.0179484,0.0552188,0.0662268,0.139402,1.67E-05,4.36303E-16,2.05E-05,0.0408675,0.06936403,0.0448313,0.1551,5.95E-05,5.94E-05,0.412624,1.01932E-08,0.000126156,0.000223178,0.413092
377.295,40.02142,42.80733,46.14717,0.15522,0.166221,0.378559,2.13E-10,0,1.78E-06,0.0103455,0.0400319,0.104643,0.155022,1.25E-05,1.45436E-16,3.44E-06,0.0264062,0.06526,0.0704456,0.162128,4.33E-05,3.35E-05,0.367575,2.44374E-07,0.000327185,0.000456273,0.368436
380.16,39.58207,42.32227,45.11578,0.166262,0.168765,0.324629,1.20E-10,0,4.00E-07,0.0057616,0.0262695,0.135908,0.16794,9.39E-06,0,5.78E-07,0.0162241,0.0489727,0.103744,0.168951,3.15E-05,1.89E-05,0.297974,5.82206E-06,0.000845984,0.000931793,0.299808
383.025,39.12131,41.82889,44.25217,0.130409,0.186452,0.228602,6.76E-11,0,8.98008E-08,3.14E-03,0.0162012,0.109358,0.128704,7.05E-06,0,9.70E-08,0.009635089,0.0310469,0.138745,0.179435,2.29E-05,1.07E-05,0.213936,0.000136831,0.002170391,0.001898601,0.218175
385.889,38.76567,41.31928,43.68785,0.0572302,0.155212,0.148646,3.81E-11,0,2.01329E-08,1.70E-03,0.009622781,0.0364905,0.0478102,5.30E-06,0,1.63E-08,0.005600956,0.017559,0.141984,0.16515,1.67E-05,6.01E-06,1.36E-01,0.003051316,0.005459059,0.003850923,0.147905
388.754,38.73004,40.88951,43.31758,0.005850295,0.0715643,0.133994,2.15E-11,0,4.50822E-09,9.10E-04,0.00558991,0.006785818,0.0132858,3.98E-06,0,2.72E-09,0.003214243,0.009268501,0.0546115,0.0670983,1.21E-05,3.39E-06,7.75E-02,0.0392894,0.0130828,0.007739533,0.137607
391.619,38.69946,40.82424,42.8885,0.008380986,0.006712885,0.155806,1.21E-11,0,1.00836E-09,4.86E-04,0.003205695,0.001069812,0.004761946,2.99E-06,0,4.56E-10,1.83E-03,0.004709806,0.00727608,0.0138196,8.82E-06,1.91E-06,4.13E-02,0.0729774,0.0281314,0.0152771,0.157734
394.484,38.66972,40.8031,42.4371,0.007422332,0.009895682,0.163278,6.84E-12,0,2.25315E-10,2.60E-04,0.001824939,0.000162053,0.002246524,2.24E-06,0,7.63E-11,1.04E-03,0.00234653,0.000732475,0.004119436,6.42E-06,1.08E-06,2.12E-02,0.0584133,0.0492388,0.0291448,0.157979
397.348,38.65196,40.75376,41.97726,0.005282198,0.0137063,0.166497,3.86E-12,0,5.0299E-11,1.38E-04,0.001034579,2.42E-05,0.001197151,1.68E-06,0,1.28E-11,5.87E-04,0.001157564,7.00277E-05,0.001816568,4.67E-06,6.07E-07,1.06E-02,0.03929963,0.0635418,0.0523474,0.165803
400.2131,38.63356,40.7245,41.4905,0.007771942,0.009295539,0.171066,2.17E-12,0,1.12193E-11,7.37E-05,0.000585136,3.61E-06,0.000662438,1.27E-06,0,2.14E-12,3.32E-04,0.000568251,6.57566E-06,0.00090785,3.40E-06,3.42E-07,5.25E-03,0.0234975,0.0576773,0.0853557,0.171788
403.078,38.61401,40.7063,41.00362,0.007371355,0.0114545,0.174325,1.23E-12,0,2.50062E-12,3.93E-05,0.0003305,5.35E-07,0.000370286,9.50E-07,0,3.57006E-13,1.87E-04,0.000278288,6.11677E-07,0.000467108,2.47E-06,1.93E-07,2.59E-03,0.0128892,0.0374768,0.120214,0.17317
405.943,38.58779,40.66424,40.50453,0.007466924,0.0129244,0.16346,6.91E-13,0,5.5701E-13,2.09E-05,1.87E-04,7.94E-08,2.08E-04,7.13E-07,0,5.96794E-14,1.06E-04,0.000136126,5.65966E-08,0.000242546,1.80E-06,1.09E-07,1.27E-03,0.00669926,0.0188812,0.12779,0.154642
408.807,38.56958,40.62605,40.05237,0.006741771,0.0113396,0.0911223,3.90E-13,0,1.23904E-13,1.11E-05,1.05E-04,1.18E-08,1.16E-04,5.36E-07,0,9.98172E-15,5.96E-05,6.6549E-05,5.22075E-09,0.000126681,1.31E-06,6.14E-08,6.22E-04,0.00337856,0.008195556,0.0685856,0.0807829
411.672,38.55162,40.59308,39.90159,0.007801371,0.0124483,0.0186305,2.20E-13,0,2.76143E-14,5.93E-06,5.94E-05,1.74E-09,6.53E-05,4.02E-07,0,1.64255E-15,3.36E-05,3.25253E-05,4.80759E-10,6.65353E-05,9.51E-07,3.46E-08,3.04E-04,0.00167715,0.003314031,0.01607553,0.0213721
414.537,38.52507,40.55799,39.89073,0.007230592,0.0131901,-0.00019184,1.24E-13,0,6.18058E-15,3.16E-06,3.35E-05,2.58E-10,3.66E-05,3.02E-07,0,2.74002E-16,1.90E-05,1.58943E-05,4.42E-11,3.51482E-05,6.91E-07,1.95E-08,1.49E-04,8.26E-04,0.001300589,0.002665532,0.004941672
417.402,38.51157,40.51963,39.85971,0.008030145,0.0133417,0.008318549,6.99E-14,0,1.43179E-15,1.68E-06,1.89E-05,3.82E-11,2.06E-05,2.27E-07,0,0,1.07E-05,7.76664E-06,4.07E-12,1.86803E-05,5.03E-07,1.10E-08,7.28E-05,4.05E-04,0.00050435,0.000407779,0.001390587
420.266,38.48065,40.48082,39.8463,0.0106276,0.0129824,0.008661557,3.95E-14,0,3.19276E-16,8.94E-07,1.06E-05,5.66E-12,1.15E-05,1.70E-07,0,0,6.03E-06,3.79E-06,3.74E-13,9.99E-06,3.66E-07,6.20E-09,3.56E-05,1.98E-04,0.000194668,6.1143E-05,0.00049011
423.131,38.44742,40.45377,39.8141,0.008649028,0.0125173,0.009414239,2.22E-14,0,0,4.76E-07,6.00E-06,8.39E-13,6.48E-06,1.28E-07,0,0,3.40E-06,1.85E-06,3.43E-14,5.38E-06,2.66E-07,3.50E-09,1.74E-05,9.70E-05,7.50022E-05,9.10572E-06,0.000198776
425.996,38.42843,40.4102,39.78818,0.006788051,0.0128033,0.009204489,1.25E-14,0,0,2.54E-07,3.38E-06,1.24E-13,3.64E-06,9.61E-08,0,0,1.92E-06,9.06E-07,3.18E-15,2.92E-06,1.94E-07,1.97E-09,8.51E-06,4.74E-05,2.88768E-05,1.35214E-06,8.63461E-05
428.861,38.40409,40.38067,39.76279,0.008493495,0.0140457,0.005217693,7.01E-15,0,0,1.35E-07,1.91E-06,1.84E-14,2.04E-06,7.21E-08,0,0,1.08E-06,4.43E-07,3.00E-16,1.60E-06,1.41E-07,1.1123E-09,4.16E-06,2.32E-05,1.1115E-05,2.00516E-07,3.8788E-05
431.7253,38.38066,40.33612,39.75274,0.0102811,0.01596999,0.006352269,3.93E-15,0,0,7.19E-08,1.08E-06,2.72004E-15,1.15E-06,5.42E-08,0,0,6.09E-07,2.16E-07,0.00E+00,8.80E-07,1.02E-07,6.2718E-10,2.03E-06,1.13E-05,4.2778E-06,2.97E-08,1.77664E-05
434.59,38.35008,40.29327,39.72895,0.0125483,0.0166758,0.00921608,2.22E-15,0,0,3.83E-08,6.07E-07,3.88578E-16,6.45E-07,4.07E-08,0,0,3.43E-07,1.06E-07,0.00E+00,4.90E-07,7.45E-08,3.53642E-10,9.94E-07,5.53E-06,1.64633E-06,4.40E-09,8.25194E-06
437.455,38.31384,40.25219,39.69986,0.0109394,0.0136604,0.0103509,1.20E-15,0,0,2.04E-08,3.42E-07,5.55111E-17,3.63E-07,3.05E-08,0,0,1.94E-07,5.16E-08,0.00E+00,2.76E-07,5.42E-08,1.99405E-10,4.86E-07,2.70E-06,6.34E-07,6.52E-10,3.88E-06
440.32,38.27859,40.2044,39.67076,0.009482423,0.0147024,0.007733505,6.84E-16,0,0,1.08E-08,1.93E-07,0,2.04E-07,2.29E-08,0,0,1.09E-07,2.52E-08,0.00E+00,1.57E-07,3.94E-08,1.12436E-10,2.37E-07,1.32E-06,2.44E-07,9.66E-11,1.84E-06
443.184,38.25786,40.16413,39.65173,0.006431567,0.0145672,0.00729095,3.42E-16,0,0,5.78E-09,1.09E-07,0,1.15E-07,1.72E-08,0,0,6.16E-08,1.23E-08,0.00E+00,9.11E-08,2.87E-08,6.33983E-11,1.16E-07,6.45E-07,9.38E-08,1.43E-11,8.84E-07
446.049,38.23823,40.11914,39.63242,0.00903556,0.018407,0.00683626,1.71E-16,0,0,3.08E-09,6.13E-08,0,6.44E-08,1.29E-08,0,0,3.47E-08,6.02E-09,0,5.37E-08,2.09E-08,3.57479E-11,5.67E-08,3.15E-07,3.61E-08,2.12E-12,4.29E-07
448.914,38.21194,40.07236,39.61387,0.008125798,0.0140022,0.006441017,1.71E-16,0,0,1.64E-09,3.46E-08,0,3.62E-08,9.71E-09,0,0,1.96E-08,2.94E-09,0,3.22E-08,1.52E-08,2.01568E-11,2.76912E-08,1.54E-07,1.39E-08,3.14E-13,2.11E-07
451.779,38.18709,40.02758,39.59252,0.009001134,0.0167992,0.008595939,0.00E+00,0,0,8.72E-10,1.95E-08,0,2.04E-08,7.29E-09,0,0,1.10E-08,1.44E-09,0,1.98E-08,1.10E-08,1.13656E-11,1.35312E-08,7.53E-08,5.35E-09,4.65E-14,1.05E-07
454.643,38.16389,39.98015,39.56944,0.007806852,0.0193913,0.008386203,0.00E+00,0,0,4.64E-10,1.10E-08,0,1.15E-08,5.48E-09,0,0,6.22E-09,7.03E-10,0,1.24E-08,8.02E-09,6.40864E-12,6.61186E-09,3.68E-08,2.06E-09,6.89E-15,5.35E-08
457.508,38.13691,39.91774,39.54189,0.009192408,0.0167287,0.007432516,0.00E+00,0,0,2.47E-10,6.20E-09,0,6.45E-09,4.11E-09,0,0,3.51E-09,3.43E-10,0,7.96E-09,5.84E-09,3.6136E-12,3.23078E-09,1.80E-08,7.92E-10,1.03E-15,2.78E-08
460.373,38.11104,39.88576,39.5268,0.008486667,0.0102652,0.007781742,0.00E+00,0,0,1.32E-10,3.50E-09,0,3.63E-09,3.09E-09,0,0,1.98E-09,1.68E-10,0,5.23E-09,4.25E-09,2.03752E-12,1.57866E-09,8.78E-09,3.05E-10,1.47E-16,1.49E-08
463.237,38.08971,39.84941,39.5027,0.008513775,0.011916,0.0104893,0.00E+00,0,0,7.01E-11,1.97E-09,0,2.04E-09,2.32E-09,0,0,1.12E-09,8.20E-11,0,3.52E-09,3.09E-09,1.1489E-12,7.71374E-10,4.29E-09,1.17E-10,0.00E+00,8.27E-09
466.102,38.06649,39.81238,39.46881,0.00870886,0.0132507,0.007604156,0.00E+00,0,0,3.73E-11,1.11E-09,0,1.15E-09,1.74E-09,0,0,6.29E-10,4.01E-11,0,2.41E-09,2.25E-09,6.47793E-13,3.76911E-10,2.10E-09,4.52E-11,0.00E+00,4.77E-09
468.967,38.04326,39.77128,39.45648,0.009851864,0.01210887,0.007034204,0.00E+00,0,0,1.99E-11,6.27E-10,0,6.47E-10,1.31E-09,0,0,3.55E-10,1.96E-11,0,1.68E-09,1.63E-09,3.65237E-13,1.84167E-10,1.02E-09,1.74E-11,0,2.86E-09
471.832,38.01041,39.73526,39.43032,0.009003685,0.0131827,0.009192394,0.00E+00,0,0,1.06E-11,3.53E-10,0,3.64E-10,9.82E-10,0,0,2.00E-10,9.56E-12,0,1.19E-09,1.19E-09,2.05929E-13,8.99878E-11,5.01E-10,6.69E-12,0,1.79E-09
474.696,37.99175,39.69977,39.4009,0.006383387,0.01315199,0.0105583,0.00E+00,0,0,5.63E-12,1.99E-10,0,2.05E-10,7.37E-10,0,0,1.13E-10,4.67E-12,0,8.55E-10,8.64E-10,1.16165E-13,4.39697E-11,2.45E-10,2.57E-12,0,1.16E-09
477.561,37.97245,39.65903,39.37613,0.008299206,0.0108377,0.009431802,0.00E+00,0,0,3.00E-12,1.12E-10,0,1.15E-10,5.53E-10,0,0,6.36E-11,2.28E-12,0,6.19E-10,6.29E-10,6.54232E-14,2.14843E-11,1.20E-10,9.90E-13,0,7.71E-10
480.426,37.9439,39.62393,39.33956,0.009863003,0.009818326,0.008012658,0.00E+00,0,0,1.60E-12,6.34E-11,0,6.49E-11,4.16E-10,0,0,3.59E-11,1.12E-12,0,4.53E-10,4.57E-10,3.69615E-14,1.04977E-11,5.84E-11,3.81E-13,0,5.27E-10
483.291,37.9211,39.59981,39.32648,0.00907573,0.0135599,0.008075767,0.00E+00,0,0,8.50E-13,3.57E-11,0,3.66E-11,3.12E-10,0,0,2.02E-11,5.45E-13,0,3.33E-10,3.33E-10,2.08633E-14,5.12928E-12,2.85E-11,1.47E-13,0,3.67E-10
486.155,37.89348,39.54585,39.29484,0.005837205,0.0175719,0.0104228,0.00E+00,0,0,4.52E-13,2.01E-11,0,2.06E-11,2.34E-10,0,0,1.14E-11,2.66E-13,0,2.46E-10,2.42E-10,1.17195E-14,2.50622E-12,1.39E-11,5.65E-14,0,2.59E-10
489.0202,37.88636,39.51075,39.26502,0.005157698,0.0138937,0.011054,0.00E+00,0,0,2.41E-13,1.14E-11,0,1.16E-11,1.76E-10,0,0,6.43E-12,1.30E-13,0,1.83E-10,1.76E-10,6.56808E-15,1.22458E-12,6.81E-12,2.17E-14,0,1.84E-10
491.885,37.86438,39.46676,39.23392,0.0139507,0.0177886,0.0178531,0.00E+00,0,0,1.28E-13,6.40E-12,0,6.53E-12,1.32E-10,0,0,3.63E-12,6.36E-14,0,1.36E-10,1.28E-10,3.73479E-15,5.98365E-13,3.33E-12,8.37E-15,0,1.32E-10
494.75,37.84212,39.43873,39.20059,0.003413934,0.002942686,0.0109225,0.00E+00,0,0,6.83E-14,3.61E-12,0,3.68E-12,9.92E-11,0,0,2.04E-12,3.11E-14,0,1.01E-10,9.31E-11,2.06057E-15,2.92389E-13,1.63E-12,3.22E-15,0,9.51E-11
497.614,37.82146,39.41721,39.18523,-0.0760056,-0.0792124,-0.0787462,0.00E+00,0,0,3.64E-14,2.04E-12,0,2.07E-12,7.45E-11,0,0,1.15E-12,1.52E-14,0,7.57E-11,6.77E-11,1.15907E-15,1.42798E-13,7.95E-13,1.23E-15,0,6.87E-11