File: DSC/Dy_DSK.csv
#EXPORTTYPE:                 ;DATA COMPARE                                           ;DATA COMPARE                                                  ;DATA COMPARE
#FILE:                       ;11.05.23_ Dy_1.5+3_3kmin_30+500_N2-120.ngb-ds5         ;10.05.23_ Dy_1.5+3_10kmin_30+500_N2-120.ngb-ds5               ;04.05.23_Dy_1,5+3_5kmin_30+1000_N2-120.ngb-ds5
#FORMAT:                     ;NETZSCH5                                               ;NETZSCH5                                                      ;NETZSCH5
#FTYPE:                      ;ANSI                                                   ;ANSI                                                          ;ANSI
#IDENTITY:                   ;Dy_1,5+3                                               ;Dy 1.5+3                                                      ;Dy_1,5+3
#DECIMAL:                    ;COMMA                                                  ;COMMA                                                         ;COMMA
#SEPARATOR:                  ;SEMICOLON                                              ;SEMICOLON                                                     ;SEMICOLON
#MTYPE:                      ;DSC                                                    ;DSC                                                           ;DSC
#INSTRUMENT:                 ;NETZSCH STA 449F5                                      ;NETZSCH STA 449F5                                             ;NETZSCH STA 449F5
#PROJECT:                    ;                                                       ;                                                              ;
#DATE/TIME:                  ;11.05.2023 15:56:06 (UTC+3)                            ;10.05.2023 16:39:14 (UTC+3)                                   ;04.05.2023 11:29:49 (UTC+3)
#CORR. FILE:                 ;11.05.23_correction for composite-3kmin_30-500Ñ.ngb-bs5;29.04.22_correction for composite-10kmin_30+500_N2-120.ngb-bs5;18.04.23_correction for composite-5kmin_30-1000Ñ.ngb-bs5
#TEMPCAL:                    ;3kmin-N2_washer+Al2O3+cover.ngb-ts5                    ;10kmin-N2_washer+Al2O3+cover.ngb-ts5                          ;5kmin-N2_washer+Al2O3+cover.ngb-ts5
#SENSITIVITY:                ;3kmin-N2_washer+Al2O3+cover.ngb-es5                    ;10kmin-N2_washer+Al2O3+cover.ngb-ts5.ngb-es5                  ;5kmin-N2_washer+Al2O3+cover.ngb-es5
#LABORATORY:                 ;                                                       ;                                                              ;
#OPERATOR:                   ;                                                       ;                                                              ;
#REMARK:                     ;                                                       ;                                                              ;
#SAMPLE:                     ;1                                                      ;1                                                             ;1
#SAMPLE MASS /mg:            ;29,0031                                                ;23,9261                                                       ;25,0075
#MATERIAL:                   ;                                                       ;                                                              ;
#REFERENCE:                  ;                                                       ;                                                              ;
#REFERENCE MASS /mg:         ;0                                                      ;0                                                             ;0
#TYPE OF CRUCIBLE:           ;DSC/TG pan Al2O3                                       ;DSC/TG pan Al2O3                                              ;DSC/TG pan Al2O3
#SAMPLE CRUCIBLE MASS /mg:   ;0                                                      ;0                                                             ;0
#REFERENCE CRUCIBLE MASS /mg:;0                                                      ;0                                                             ;0
#DSC RANGE /µV:              ;5000                                                   ;5000                                                          ;5000
#TG RANGE /mg:               ;35000                                                  ;35000                                                         ;35000
#TAU-R:                      ;---                                                    ;---                                                           ;---
#CORR. CODE:                 ;020                                                    ;020                                                           ;020
#EXO:                        ;+1                                                     ;+1                                                            ;+1
#RANGE:                      ;30°C/3,0(K/min)/500°C                                  ;30°C/10,0(K/min)/500°C                                        ;30°C/5,0(K/min)/1000°C
#SEGMENT:                    ;S1/1                                                   ;S1/1                                                          ;S1/1
#SEG. 1:                     ;30°C/3,0(K/min)/500°C                                  ;30°C/10,0(K/min)/500°C                                        ;30°C/5,0(K/min)/1000°C

##Temp./°C;DSC/(mW/mg);DSC/(mW/mg);DSC/(mW/mg)
 30,67700; 1,864563e-003;-1,119266e-003; 1,937029e-003
 32,58683;-7,888480e-003;-1,773741e-002; 6,099374e-003
 34,49666;-1,402875e-002;-3,172290e-002; 7,383005e-003
 36,40649;-1,829794e-002;-4,272503e-002; 8,043397e-003
 38,31632;-2,158710e-002;-5,253155e-002; 8,687588e-003
 40,22615;-2,455767e-002;-6,094891e-002; 9,235242e-003
 42,13598;-2,665800e-002;-6,829838e-002; 9,874575e-003
 44,04581;-2,811054e-002;-7,412889e-002; 1,029362e-002
 45,95564;-2,913597e-002;-8,039340e-002; 1,117864e-002
 47,86547;-2,959240e-002;-8,502477e-002; 1,180475e-002
 49,77530;-3,036589e-002;-8,923464e-002; 1,264445e-002
 51,68513;-3,016008e-002;-9,283793e-002; 1,375542e-002
 53,59496;-2,995719e-002;-9,607276e-002; 1,480127e-002
 55,50479;-2,957686e-002;-9,860495e-002; 1,591822e-002
 57,41462;-2,898242e-002;      -0,10080; 1,759738e-002
 59,32445;-2,840418e-002;      -0,10263; 1,885637e-002
 61,23428;-2,737098e-002;      -0,10405; 2,052659e-002
 63,14411;-2,632107e-002;      -0,10533; 2,200393e-002
 65,05394;-2,510018e-002;      -0,10584; 2,315556e-002
 66,96377;-2,401506e-002;      -0,10634; 2,532195e-002
 68,87360;-2,235973e-002;      -0,10636; 2,678295e-002
 70,78343;-2,083159e-002;      -0,10608; 2,878984e-002
 72,69326;-1,920616e-002;      -0,10572; 3,079125e-002
 74,60309;-1,767258e-002;      -0,10483; 3,267735e-002
 76,51292;-1,595736e-002;      -0,10355; 3,480161e-002
 78,42275;-1,394030e-002;      -0,10223; 3,715757e-002
 80,33258;-1,238919e-002;      -0,10052; 3,942629e-002
 82,24241;-1,013623e-002;-9,929843e-002; 4,175834e-002
 84,15224;-8,363864e-003;-9,704450e-002; 4,426488e-002
 86,06207;-6,189705e-003;-9,530858e-002; 4,622143e-002
 87,97190;-4,296394e-003;-9,277124e-002; 4,867375e-002
 89,88173;-2,259040e-003;-9,043075e-002; 5,081711e-002
 91,79156;-2,196644e-004;-8,763962e-002; 5,351227e-002
 93,70139; 2,064811e-003;-8,509733e-002; 5,588818e-002
 95,61122; 4,055140e-003;-8,109418e-002; 5,782491e-002
 97,52105; 6,444821e-003;-7,819400e-002; 6,064774e-002
 99,43088; 8,734382e-003;-7,437199e-002; 6,317272e-002
101,34071; 1,152070e-002;-7,114625e-002; 6,525287e-002
103,25054; 1,306661e-002;-6,694685e-002; 6,761376e-002
105,16037; 1,575689e-002;-6,278774e-002; 7,019310e-002
107,07020; 1,809582e-002;-5,927009e-002; 7,244478e-002
108,98003; 2,075467e-002;-5,437354e-002; 7,502614e-002
110,88986; 2,286062e-002;-4,988773e-002; 7,817622e-002
112,79969; 2,549037e-002;-4,555450e-002; 8,016758e-002
114,70952; 2,762707e-002;-4,072172e-002; 8,311848e-002
116,61935; 2,995510e-002;-3,637515e-002; 8,582613e-002
118,52918; 3,241218e-002;-3,137581e-002; 8,814455e-002
120,43901; 3,483706e-002;-2,659485e-002; 9,099942e-002
122,34884; 3,768302e-002;-2,117896e-002; 9,388369e-002
124,25867; 3,983094e-002;-1,629417e-002; 9,674418e-002
126,16850; 4,230895e-002;-1,101473e-002; 9,865564e-002
128,07833; 4,414813e-002;-6,094926e-003;       0,10155
129,98816; 4,656175e-002;-8,952851e-004;       0,10446
131,89799; 4,886792e-002; 4,514672e-003;       0,10658
133,80782; 5,174107e-002; 9,897809e-003;       0,10905
135,71765; 5,388161e-002; 1,505474e-002;       0,11113
137,62748; 5,691941e-002; 2,007053e-002;       0,11330
139,53731; 5,995217e-002; 2,518339e-002;       0,11541
141,44714; 6,272080e-002; 3,023891e-002;       0,11792
143,35697; 6,616196e-002; 3,451160e-002;       0,12007
145,26680; 6,940899e-002; 3,909509e-002;       0,12289
147,17663; 7,193634e-002; 4,329631e-002;       0,12565
149,08646; 7,510575e-002; 4,776667e-002;       0,12966
150,99629; 7,748106e-002; 5,187230e-002;       0,13281
152,90612; 7,964549e-002; 5,674190e-002;       0,13671
154,81595; 7,762061e-002; 6,203401e-002;       0,13996
156,72578; 8,377592e-002; 6,776702e-002;       0,14253
158,63561; 8,635540e-002; 7,394204e-002;       0,14508
160,54544; 8,811119e-002; 8,064723e-002;       0,14730
162,45527; 9,027210e-002; 8,736896e-002;       0,14934
164,36510; 9,196665e-002; 9,327159e-002;       0,15199
166,27493; 9,311718e-002; 9,930659e-002;       0,15315
168,18476; 9,441621e-002;       0,10444;       0,15459
170,09459; 9,473679e-002;       0,10968;       0,15628
172,00442; 9,435814e-002;       0,11367;       0,15705
173,91425; 9,308269e-002;       0,11747;       0,15758
175,82408; 9,167808e-002;       0,12090;       0,15711
177,73391; 8,940999e-002;       0,12434;       0,15650
179,64374; 8,567187e-002;       0,12760;       0,15386
181,55357; 8,022171e-002;       0,13044;       0,15113
183,46340; 7,415624e-002;       0,13242;       0,14649
185,37323; 6,617616e-002;       0,13241;       0,14038
187,28306;-4,624814e-003;       0,10481; 7,871496e-002
189,19289;      -0,24278;-9,245648e-002;      -0,15123
191,10272;      -0,34687;      -0,36306;      -0,31900
193,01255;      -0,21348;      -0,51510;      -0,31481
194,92238;-4,933134e-002;      -0,55219;      -0,17529
196,83221; 8,031454e-003;      -0,49900;-3,715162e-002
198,74204; 2,097016e-002;      -0,36687; 2,888393e-002
200,65187; 1,579732e-002;      -0,23613; 5,735616e-002
202,56170; 2,667462e-003;      -0,14250; 6,113971e-002
204,47153;-1,303418e-002;-7,879295e-002; 5,113574e-002
206,38136;-3,093788e-002;-3,785063e-002; 3,666443e-002
208,29119;-5,082344e-002;-1,533307e-002; 1,762025e-002
210,20102;-7,053644e-002;-7,937482e-003;-5,099539e-003
212,11085;-9,186618e-002;-1,158727e-002;-2,915906e-002
214,02068;      -0,11357;-2,605075e-002;-5,510047e-002
215,93051;      -0,13537;-4,770150e-002;-8,209799e-002
217,84034;      -0,15739;-7,628297e-002;      -0,10978
219,75017;      -0,17882;      -0,11065;      -0,13768
221,66000;      -0,19861;      -0,14887;      -0,16579
223,56983;      -0,21646;      -0,19234;      -0,19289
225,47966;      -0,23192;      -0,23841;      -0,21935
227,38949;      -0,24326;      -0,28679;      -0,24519
229,29932;      -0,25046;      -0,33660;      -0,26817
231,20915;      -0,25273;      -0,38847;      -0,28930
233,11898;      -0,25269;      -0,44091;      -0,30490
235,02881;      -0,25752;      -0,49382;      -0,31717
236,93864;      -0,25875;      -0,54655;      -0,32424
238,84847;      -0,25366;      -0,59804;      -0,32492
240,75830;      -0,24600;      -0,64838;      -0,33868
242,66813;      -0,24007;      -0,69541;      -0,36469
244,57796;      -0,23717;      -0,73907;      -0,38932
246,48779;      -0,23781;      -0,77826;      -0,40514
248,39762;      -0,24448;      -0,81193;      -0,41507
250,30745;      -0,25659;      -0,83795;      -0,42384
252,21728;      -0,27279;      -0,85664;      -0,43593
254,12711;      -0,29213;      -0,86765;      -0,45199
256,03694;      -0,31251;      -0,88365;      -0,47348
257,94677;      -0,33360;      -0,90585;      -0,49801
259,85660;      -0,35210;      -0,92282;      -0,52052
261,76643;      -0,36522;      -0,93133;      -0,53827
263,67626;      -0,36836;      -0,93202;      -0,55221
265,58609;      -0,35933;      -0,92928;      -0,55873
267,49592;      -0,33944;      -0,92877;      -0,55025
269,40575;      -0,28023;      -0,93274;      -0,53230
271,31558;      -0,11228;      -0,94527;      -0,51011
273,22541;       0,11035;      -0,96694;      -0,48088
275,13524;       0,18016;      -0,99484;      -0,44134
277,04507;       0,18692;      -1,02497;      -0,37836
278,95490;       0,17886;      -1,05585;      -0,24788
280,86473;       0,16648;      -1,08271;-3,273490e-002
282,77456;       0,15260;      -1,10608;       0,16850
284,68439;       0,13839;      -1,12122;       0,24063
286,59422;       0,12325;      -1,12252;       0,25162
288,50405;       0,10668;      -1,11772;       0,24223
290,41388; 8,969883e-002;      -1,10412;       0,22596
292,32371; 7,192366e-002;      -1,08171;       0,20518
294,23354; 5,275046e-002;      -1,04770;       0,18346
296,14337; 3,392932e-002;      -0,99678;       0,16041
298,05320; 1,463687e-002;      -0,92062;       0,13783
299,96303;-5,291856e-003;      -0,81017;       0,11399
301,87286;-2,592652e-002;      -0,66171; 9,026113e-002
303,78269;-4,727513e-002;      -0,49723; 7,171776e-002
305,69252;-7,032505e-002;      -0,33341; 5,110360e-002
307,60235;-9,240466e-002;      -0,15449; 2,825340e-002
309,51218;      -0,11485;-6,676402e-002; 2,415779e-003
311,42201;      -0,13826;-3,708716e-002;-2,392606e-002
313,33184;      -0,16108;-3,723623e-002;-5,052716e-002
315,24167;      -0,18464;-5,484435e-002;-7,783960e-002
317,15150;      -0,20901;-8,544421e-002;      -0,10557
319,06133;      -0,23244;      -0,12440;      -0,13343
320,97116;      -0,25834;      -0,16958;      -0,16160
322,88099;      -0,28286;      -0,21880;      -0,18897
324,79082;      -0,30133;      -0,27115;      -0,21714
326,70065;      -0,31344;      -0,32458;      -0,24556
328,61048;      -0,31568;      -0,37902;      -0,27288
330,52031;      -0,30233;      -0,43431;      -0,30155
332,43014;      -0,25823;      -0,49184;      -0,33027
334,33997;      -0,14250;      -0,54854;      -0,35463
336,24980;       0,19113;      -0,60406;      -0,37172
338,15963;       0,31989;      -0,66085;      -0,38304
340,06946;       0,35326;      -0,71728;      -0,38491
341,97929;       0,36006;      -0,77154;      -0,37204
343,88912;       0,35919;      -0,82597;      -0,33816
345,79895;       0,35437;      -0,87845;      -0,26110
347,70878;       0,34810;      -0,92916;-7,431386e-002
349,61861;       0,34155;      -0,97467;       0,28283
351,52844;       0,33411;      -1,01482;       0,43557
353,43827;       0,32500;      -1,04707;       0,49790
355,34810;       0,31374;      -1,07085;       0,52071
357,25793;       0,30064;      -1,08343;       0,52349
359,16776;       0,28550;      -1,08393;       0,51893
361,07759;       0,26880;      -1,07049;       0,51148
362,98742;       0,25035;      -1,04140;       0,50313
364,89725;       0,23120;      -0,99120;       0,49357
366,80708;       0,21189;      -0,91521;       0,48204
368,71691;       0,19328;      -0,80090;       0,46887
370,62674;       0,17525;      -0,62458;       0,45379
372,53657;       0,15682;      -0,32380;       0,43761
374,44640;       0,13886; 3,672374e-003;       0,41898
376,35623;       0,12024;       0,18939;       0,39955
378,26606;       0,10062;       0,29289;       0,37827
380,17589; 7,957501e-002;       0,34696;       0,35466
382,08572; 5,793534e-002;       0,36771;       0,32979
383,99555; 3,471400e-002;       0,36567;       0,30215
385,90538; 1,007837e-002;       0,34733;       0,27495
387,81521;-1,305390e-002;       0,31875;       0,24908
389,72504; 2,228055e-002;       0,28254;       0,22127
391,63487;       0,15108;       0,24101;       0,19404
393,54470;       0,18365;       0,19571;       0,16490
395,45453;       0,19404;       0,14827;       0,13522
397,36436;       0,19817; 9,808718e-002;       0,10451
399,27419;       0,20102; 4,770981e-002; 7,136110e-002
401,18402;       0,20458;-4,290065e-003; 3,748105e-002
403,09385;       0,20694;-5,707166e-002; 3,932950e-003
405,00368;       0,20974;      -0,11006;-2,043705e-002
406,91351;       0,21243;      -0,16508; 6,662587e-002
408,82334;       0,21552;      -0,22139;       0,20845
410,73317;       0,21856;      -0,27993;       0,26474
412,64300;       0,22056;      -0,33971;       0,28941
414,55283;       0,22374;      -0,39923;       0,30030
416,46266;       0,22635;      -0,45612;       0,30652
418,37249;       0,22951;      -0,50120;       0,30997
420,28232;       0,23234;      -0,51474;       0,31308
422,19215;       0,23509;      -0,38957;       0,31573
424,10198;       0,23757;      -0,20430;       0,31865
426,01181;       0,24043;-9,624550e-002;       0,32217
427,92164;       0,24392;-2,909247e-002;       0,32409
429,83147;       0,24630; 1,310067e-002;       0,32658
431,74130;       0,24926; 4,073611e-002;       0,32907
433,65113;       0,25211; 5,747351e-002;       0,33180
435,56096;       0,25482; 6,843817e-002;       0,33389
437,47079;       0,25729; 7,648330e-002;       0,33636
439,38062;       0,25968; 8,130269e-002;       0,33926
441,29045;       0,26273; 8,462307e-002;       0,34147
443,20028;       0,26507; 8,678928e-002;       0,34421
445,11011;       0,26761; 8,831737e-002;       0,34672
447,01994;       0,27044; 8,929100e-002;       0,34891
448,92977;       0,27349; 9,077644e-002;       0,35125
450,83960;       0,27651; 9,144095e-002;       0,35301
452,74943;       0,27867; 9,200221e-002;       0,35661
454,65926;       0,28161; 9,283422e-002;       0,35950
456,56909;       0,28431; 9,334176e-002;       0,36179
458,47892;       0,28716; 9,390391e-002;       0,36432
460,38875;       0,28960; 9,372772e-002;       0,36643
462,29858;       0,29238; 9,425987e-002;       0,36868
464,20841;       0,29582; 9,467181e-002;       0,37025
466,11824;       0,29868; 9,506493e-002;       0,37217
468,02807;       0,30079; 9,533686e-002;       0,37434
469,93790;       0,30296; 9,530986e-002;       0,37715
471,84773;       0,30536; 9,525676e-002;       0,38000
473,75756;       0,30841; 9,651900e-002;       0,38126
475,66739;       0,31096; 9,574145e-002;       0,38367
477,57722;       0,31350; 9,621130e-002;       0,38554
479,48705;       0,31592; 9,658967e-002;       0,38816
481,39688;       0,31856; 9,637115e-002;       0,39023
483,30671;       0,32099; 9,673062e-002;       0,39301
485,21654;       0,32286; 9,657277e-002;       0,39501
487,12637;       0,32560; 9,665860e-002;       0,39777
489,03620;       0,32717; 9,650303e-002;       0,39998
490,94603;       0,32934; 9,668583e-002;       0,40234
492,85586;       0,33185; 9,666256e-002;       0,40413
494,76569;       0,33454; 9,659702e-002;       0,40581
496,67552;       0,33642; 9,625130e-002;       0,40765
498,58535;       0,33889; 9,625130e-002;       0,40865
500,49518;       0,33889; 9,625130e-002;       0,41104
502,40501;       0,33889;              ;       0,41291
504,31484;              ;              ;       0,41521
506,22467;              ;              ;       0,41746
508,13450;              ;              ;       0,41971
510,04433;              ;              ;       0,42162
511,95416;              ;              ;       0,42375
513,86399;              ;              ;       0,42648
515,77382;              ;              ;       0,42790
517,68365;              ;              ;       0,42739
519,59348;              ;              ;       0,42757
521,50331;              ;              ;       0,42849
523,41314;              ;              ;       0,42981
525,32297;              ;              ;       0,43077
527,23280;              ;              ;       0,43173
529,14263;              ;              ;       0,43277
531,05246;              ;              ;       0,43345
532,96229;              ;              ;       0,43193
534,87212;              ;              ;       0,43294
536,78195;              ;              ;       0,43413
538,69178;              ;              ;       0,43528
540,60161;              ;              ;       0,43616
542,51144;              ;              ;       0,43698
544,42127;              ;              ;       0,43536
546,33110;              ;              ;       0,43756
548,24093;              ;              ;       0,43781
550,15076;              ;              ;       0,43807
552,06059;              ;              ;       0,43878
553,97042;              ;              ;       0,43923
555,88025;              ;              ;       0,43979
557,79008;              ;              ;       0,44074
559,69991;              ;              ;       0,43995
561,60974;              ;              ;       0,44004
563,51957;              ;              ;       0,44033
565,42940;              ;              ;       0,44008
567,33923;              ;              ;       0,44084
569,24906;              ;              ;       0,44013
571,15889;              ;              ;       0,43954
573,06872;              ;              ;       0,43898
574,97855;              ;              ;       0,43804
576,88838;              ;              ;       0,43723
578,79821;              ;              ;       0,43593
580,70804;              ;              ;       0,43561
582,61787;              ;              ;       0,43493
584,52770;              ;              ;       0,43434
586,43753;              ;              ;       0,43420
588,34736;              ;              ;       0,43370
590,25719;              ;              ;       0,43436
592,16702;              ;              ;       0,43423
594,07685;              ;              ;       0,43447
595,98668;              ;              ;       0,43468
597,89651;              ;              ;       0,43457
599,80634;              ;              ;       0,43427
601,71617;              ;              ;       0,43408
603,62600;              ;              ;       0,43382
605,53583;              ;              ;       0,43422
607,44566;              ;              ;       0,43382
609,35549;              ;              ;       0,43372
611,26532;              ;              ;       0,43406
613,17515;              ;              ;       0,43446
615,08498;              ;              ;       0,43348
616,99481;              ;              ;       0,43455
618,90464;              ;              ;       0,43522
620,81447;              ;              ;       0,43457
622,72430;              ;              ;       0,43450
624,63413;              ;              ;       0,43468
626,54396;              ;              ;       0,43453
628,45379;              ;              ;       0,43443
630,36362;              ;              ;       0,43328
632,27345;              ;              ;       0,43166
634,18328;              ;              ;       0,42919
636,09311;              ;              ;       0,42403
638,00294;              ;              ;       0,40836
639,91277;              ;              ;       0,35073
641,82260;              ;              ;       0,16241
643,73243;              ;              ; 4,372131e-002
645,64226;              ;              ;       0,29652
647,55209;              ;              ;       0,59471
649,46192;              ;              ;       0,71001
651,37175;              ;              ;       0,75188
653,28158;              ;              ;       0,77034
655,19141;              ;              ;       0,78049
657,10124;              ;              ;       0,78950
659,01107;              ;              ;       0,79642
660,92090;              ;              ;       0,80253
662,83073;              ;              ;       0,80913
664,74056;              ;              ;       0,81596
666,65039;              ;              ;       0,82164
668,56022;              ;              ;       0,82952
670,47005;              ;              ;       0,83624
672,37988;              ;              ;       0,84297
674,28971;              ;              ;       0,84953
676,19954;              ;              ;       0,85558
678,10937;              ;              ;       0,85358
680,01920;              ;              ;       0,80386
681,92903;              ;              ;       0,77971
683,83886;              ;              ;       0,85190
685,74869;              ;              ;       0,89492
687,65852;              ;              ;       0,91063
689,56835;              ;              ;       0,91650
691,47818;              ;              ;       0,92243
693,38801;              ;              ;       0,92924
695,29784;              ;              ;       0,93375
697,20767;              ;              ;       0,93851
699,11750;              ;              ;       0,94237
701,02733;              ;              ;       0,94656
702,93716;              ;              ;       0,95084
704,84699;              ;              ;       0,95504
706,75682;              ;              ;       0,96020
708,66665;              ;              ;       0,96578
710,57648;              ;              ;       0,97113
712,48631;              ;              ;       0,97673
714,39614;              ;              ;       0,98188
716,30597;              ;              ;       0,98646
718,21580;              ;              ;       0,99257
720,12563;              ;              ;       0,99921
722,03546;              ;              ;       1,00581
723,94529;              ;              ;       1,01243
725,85512;              ;              ;       1,01903
727,76495;              ;              ;       1,02498
729,67478;              ;              ;       1,03229
731,58461;              ;              ;       1,03971
733,49444;              ;              ;       1,04709
735,40427;              ;              ;       1,05537
737,31410;              ;              ;       1,06305
739,22393;              ;              ;       1,07074
741,13376;              ;              ;       1,07806
743,04359;              ;              ;       1,08398
744,95342;              ;              ;       1,09150
746,86325;              ;              ;       1,09980
748,77308;              ;              ;       1,10723
750,68291;              ;              ;       1,11587
752,59274;              ;              ;       1,12357
754,50257;              ;              ;       1,13191
756,41240;              ;              ;       1,13915
758,32223;              ;              ;       1,14767
760,23206;              ;              ;       1,15679
762,14189;              ;              ;       1,16592
764,05172;              ;              ;       1,17424
765,96155;              ;              ;       1,18383
767,87138;              ;              ;       1,19215
769,78121;              ;              ;       1,20096
771,69104;              ;              ;       1,20916
773,60087;              ;              ;       1,21740
775,51070;              ;              ;       1,22578
777,42053;              ;              ;       1,23519
779,33036;              ;              ;       1,24328
781,24019;              ;              ;       1,25215
783,15002;              ;              ;       1,25964
785,05985;              ;              ;       1,26589
786,96968;              ;              ;       1,27553
788,87951;              ;              ;       1,28450
790,78934;              ;              ;       1,29393
792,69917;              ;              ;       1,30250
794,60900;              ;              ;       1,31109
796,51883;              ;              ;       1,31989
798,42866;              ;              ;       1,32715
800,33849;              ;              ;       1,33574
802,24832;              ;              ;       1,34692
804,15815;              ;              ;       1,35591
806,06798;              ;              ;       1,36309
807,97781;              ;              ;       1,37093
809,88764;              ;              ;       1,37839
811,79747;              ;              ;       1,38754
813,70730;              ;              ;       1,39514
815,61713;              ;              ;       1,40315
817,52696;              ;              ;       1,41196
819,43679;              ;              ;       1,41831
821,34662;              ;              ;       1,42427
823,25645;              ;              ;       1,43210
825,16628;              ;              ;       1,43816
827,07611;              ;              ;       1,44341
828,98594;              ;              ;       1,44661
830,89577;              ;              ;       1,45052
832,80560;              ;              ;       1,45346
834,71543;              ;              ;       1,45357
836,62526;              ;              ;       1,45531
838,53509;              ;              ;       1,45527
840,44492;              ;              ;       1,45671
842,35475;              ;              ;       1,45823
844,26458;              ;              ;       1,46354
846,17441;              ;              ;       1,46931
848,08424;              ;              ;       1,47405
849,99407;              ;              ;       1,47766
851,90390;              ;              ;       1,48195
853,81373;              ;              ;       1,48403
855,72356;              ;              ;       1,48569
857,63339;              ;              ;       1,48899
859,54322;              ;              ;       1,49132
861,45305;              ;              ;       1,49488
863,36288;              ;              ;       1,49969
865,27271;              ;              ;       1,50281
867,18254;              ;              ;       1,50546
869,09237;              ;              ;       1,50982
871,00220;              ;              ;       1,51626
872,91203;              ;              ;       1,52102
874,82186;              ;              ;       1,52384
876,73169;              ;              ;       1,52865
878,64152;              ;              ;       1,53373
880,55135;              ;              ;       1,53850
882,46118;              ;              ;       1,54183
884,37101;              ;              ;       1,54546
886,28084;              ;              ;       1,54964
888,19067;              ;              ;       1,55268
890,10050;              ;              ;       1,55762
892,01033;              ;              ;       1,56012
893,92016;              ;              ;       1,56431
895,82999;              ;              ;       1,56881
897,73982;              ;              ;       1,57266
899,64965;              ;              ;       1,57686
901,55948;              ;              ;       1,58074
903,46931;              ;              ;       1,58514
905,37914;              ;              ;       1,58667
907,28897;              ;              ;       1,58946
909,19880;              ;              ;       1,59430
911,10863;              ;              ;       1,59843
913,01846;              ;              ;       1,60265
914,92829;              ;              ;       1,60549
916,83812;              ;              ;       1,60772
918,74795;              ;              ;       1,61013
920,65778;              ;              ;       1,61232
922,56761;              ;              ;       1,61174
924,47744;              ;              ;       1,61530
926,38727;              ;              ;       1,61764
928,29710;              ;              ;       1,62024
930,20693;              ;              ;       1,62405
932,11676;              ;              ;       1,62573
934,02659;              ;              ;       1,62854
935,93642;              ;              ;       1,63286
937,84625;              ;              ;       1,63820
939,75608;              ;              ;       1,64212
941,66591;              ;              ;       1,64496
943,57574;              ;              ;       1,64816
945,48557;              ;              ;       1,65441
947,39540;              ;              ;       1,65727
949,30523;              ;              ;       1,66010
951,21506;              ;              ;       1,66498
953,12489;              ;              ;       1,66778
955,03472;              ;              ;       1,67324
956,94455;              ;              ;       1,67945
958,85438;              ;              ;       1,68242
960,76421;              ;              ;       1,68687
962,67404;              ;              ;       1,69126
964,58387;              ;              ;       1,69631
966,49370;              ;              ;       1,69895
968,40353;              ;              ;       1,70264
970,31336;              ;              ;       1,70778
972,22319;              ;              ;       1,71292
974,13302;              ;              ;       1,71707
976,04285;              ;              ;       1,72185
977,95268;              ;              ;       1,72574
979,86251;              ;              ;       1,72985
981,77234;              ;              ;       1,73394
983,68217;              ;              ;       1,73871
985,59200;              ;              ;       1,74487
987,50183;              ;              ;       1,75143
989,41166;              ;              ;       1,75354
991,32149;              ;              ;       1,75813
993,23132;              ;              ;       1,76238
995,14115;              ;              ;       1,76795
997,05098;              ;              ;       1,77357
998,00590;              ;              ;       1,77620