File: TGA/Dy_deconvoluted_TGA.csv
temperature,rate_3,rate_10,rate_5,rate_3_diff,rate_3_diff_reaction_0,rate_3_diff_reaction_1,rate_3_diff_reaction_2,rate_3_diff_reaction_3,rate_3_diff_reaction_4,rate_3_diff_reaction_5,rate_3_diff_cumulative,rate_5_diff,rate_5_diff_reaction_0,rate_5_diff_reaction_1,rate_5_diff_reaction_2,rate_5_diff_reaction_3,rate_5_diff_reaction_4,rate_5_diff_reaction_5,rate_5_diff_cumulative,rate_10_diff,rate_10_diff_reaction_0,rate_10_diff_reaction_1,rate_10_diff_reaction_2,rate_10_diff_reaction_3,rate_10_diff_reaction_4,rate_10_diff_reaction_5,rate_10_diff_cumulative
31.63192,99.99894,99.96317,100.076,7.44E-05,1.05721E-07,1.47902E-13,1.78727E-05,2.1641E-193,1.15233E-36,6.82527E-23,1.79785E-05,0.0257306,3.32898E-08,5.13704E-20,2.9996E-05,3.2106E-201,1.95981E-38,1.68647E-27,3.00293E-05,-0.006491155,2.15915E-08,2.84788E-17,3.35956E-06,4.3188E-201,1.7239E-53,3.6474E-34,3.38115E-06
34.49666,100.0006,99.98113,100.032,-0.000530988,1.34227E-07,2.16701E-13,1.99977E-05,1.296E-191,2.35836E-36,1.02767E-22,2.01319E-05,0.003258976,4.27068E-08,9.11048E-20,3.32273E-05,1.9228E-199,4.01096E-38,2.71854E-27,3.327E-05,-0.005929749,2.74133E-08,4.46513E-17,3.78549E-06,1.9359E-199,4.47945E-53,6.46861E-34,3.8129E-06
37.36141,99.99758,99.99625,100.0493,0.001944857,1.70419E-07,3.17502E-13,2.23753E-05,7.7619E-190,4.82667E-36,1.54735E-22,2.25457E-05,-0.003167997,5.47877E-08,1.61574E-19,3.68066E-05,1.1515E-197,8.20889E-38,4.3822E-27,3.68614E-05,-0.002698396,3.48048E-08,7.00079E-17,4.26541E-06,8.678E-198,1.16396E-52,1.1472E-33,4.30021E-06
40.22615,99.98793,99.99171,100.038,0.001482679,2.1637E-07,4.65192E-13,2.50355E-05,4.6485E-188,9.8783E-36,2.32983E-22,2.52519E-05,0.002414206,7.02861E-08,2.86549E-19,4.07714E-05,6.8965E-196,1.68004E-37,7.06398E-27,4.08417E-05,0.00185953,4.41894E-08,1.09764E-16,4.80617E-06,3.8899E-196,3.0245E-52,2.03455E-33,4.85036E-06
43.0909,99.99208,99.98998,100.046,-0.000370486,2.7471E-07,6.81582E-13,2.8012E-05,2.784E-186,2.02171E-35,3.50799E-22,2.82867E-05,-0.000156828,9.01687E-08,5.08192E-19,4.51634E-05,4.1303E-194,3.4384E-37,1.13869E-26,4.52535E-05,0.001107999,5.61044E-08,1.72097E-16,5.41549E-06,1.7437E-194,7.85902E-52,3.60826E-33,5.4716E-06
45.95564,99.99343,99.98957,100.052,-0.000959088,3.48782E-07,9.98627E-13,3.13424E-05,1.6673E-184,4.13765E-35,5.28193E-22,3.16912E-05,-0.002663677,1.15676E-07,9.01271E-19,5.00284E-05,2.4736E-192,7.03706E-37,1.83554E-26,5.0144E-05,-0.00097913,7.1232E-08,2.69827E-16,6.10206E-06,7.8163E-193,2.04212E-51,6.3992E-33,6.17329E-06
48.82039,100,99.99414,100.05,-0.001222038,4.42825E-07,1.46315E-12,3.50687E-05,9.9852E-183,8.46818E-35,7.95295E-22,3.55115E-05,-0.001373326,1.48398E-07,1.5984E-18,5.54174E-05,1.4814E-190,1.44022E-36,2.95884E-26,5.55657E-05,-0.001330555,9.04386E-08,4.23057E-16,6.87567E-06,3.5037E-191,5.30637E-51,1.13489E-32,6.96611E-06
51.68513,100,99.99875,100.044,0.000250118,5.62225E-07,2.14375E-12,3.9238E-05,5.98E-181,1.73311E-34,1.19746E-21,3.98002E-05,0.001065205,1.90377E-07,2.83474E-18,6.13868E-05,8.8719E-189,2.94756E-36,4.76956E-26,6.15771E-05,0.003031044,1.14824E-07,6.63302E-16,7.74736E-06,1.5706E-189,1.37883E-50,2.01272E-32,7.86218E-06
54.54988,99.99778,99.98497,100.038,-0.001409161,7.13821E-07,3.14095E-12,4.39029E-05,3.5814E-179,3.547E-34,1.80301E-21,4.46168E-05,0.001088347,2.44231E-07,5.02738E-18,6.79991E-05,5.3133E-187,6.03252E-36,7.68839E-26,6.82434E-05,0.00235356,1.45784E-07,1.03998E-15,8.72956E-06,7.0402E-188,3.58283E-50,3.56954E-32,8.87534E-06
57.41462,100.007,99.98492,100.04,-0.002542246,9.0629E-07,4.602E-12,4.91225E-05,2.1448E-177,7.25933E-34,2.71476E-21,5.00288E-05,0.001165088,3.13319E-07,8.916E-18,7.53236E-05,3.1821E-185,1.23462E-35,1.23935E-25,7.5637E-05,-0.000335385,1.85093E-07,1.63056E-15,9.83627E-06,3.1558E-186,9.30978E-50,6.33053E-32,1.00214E-05
60.27937,100.012,99.98661,100.042,-0.002087439,1.15066E-06,6.74267E-12,5.49625E-05,1.2845E-175,1.48571E-33,4.08759E-21,5.61131E-05,0.000564782,4.01951E-07,1.58124E-17,8.3437E-05,1.9057E-183,2.5268E-35,1.99779E-25,8.3839E-05,-0.001293436,2.35E-07,2.55653E-15,1.10833E-05,1.4146E-184,2.4191E-49,1.12271E-31,1.13183E-05
63.14411,100.017,99.9925,100.046,-0.000662149,1.46091E-06,9.87911E-12,6.14967E-05,7.6929E-174,3.04066E-33,6.15462E-21,6.29576E-05,-0.001958021,5.15655E-07,2.80432E-17,9.24241E-05,1.1413E-181,5.17137E-35,3.22038E-25,9.29398E-05,-0.001007996,2.98364E-07,4.00832E-15,1.24884E-05,6.3411E-183,6.28591E-49,1.99112E-31,1.27868E-05
66.00886,100.015,99.98916,100.056,0.000568562,1.85482E-06,1.44745E-11,6.88077E-05,4.6072E-172,6.22307E-33,9.26694E-21,7.06625E-05,-0.004253461,6.61524E-07,4.97343E-17,0.000102379,6.8352E-180,1.05838E-34,5.19116E-25,0.000103041,0.000857855,3.78813E-07,6.28457E-15,1.40716E-05,2.8425E-181,1.63336E-48,3.53123E-31,1.44504E-05
68.8736,100.018,99.9854,100.064,-0.003328344,2.35494E-06,2.12075E-11,7.69877E-05,2.7592E-170,1.27362E-32,1.39531E-20,7.93427E-05,-0.001508914,8.48656E-07,8.82032E-17,0.000113406,4.0935E-178,2.16609E-34,8.36799E-25,0.000114255,0.00169383,4.80954E-07,9.85345E-15,1.58556E-05,1.2742E-179,4.24421E-48,6.26259E-31,1.63365E-05
71.73835,100.034,99.9799,100.057,-0.002421559,2.98991E-06,3.10724E-11,8.61401E-05,1.6525E-168,2.60661E-32,2.1009E-20,8.91301E-05,0.00146336,1.08872E-06,1.56428E-16,0.000125621,2.4516E-176,4.43316E-34,1.3489E-24,0.000126709,0.000443476,6.10635E-07,1.5449E-14,1.78657E-05,5.7116E-178,1.10284E-47,1.11067E-30,1.84763E-05
74.60309,100.032,99.98603,100.055,0.001608557,3.79608E-06,4.55261E-11,9.63804E-05,9.8964E-167,5.33471E-32,3.1633E-20,0.000100177,0.000225188,1.3967E-06,2.77422E-16,0.00013915,1.4682E-174,9.07295E-34,2.17438E-24,0.000140547,-0.000515182,7.75282E-07,2.42222E-14,2.01306E-05,2.5602E-176,2.86566E-47,1.96975E-30,2.09059E-05
77.46784,100.027,99.98579,100.058,0.000459674,4.81963E-06,6.67032E-11,0.000107838,5.9269E-165,1.09181E-31,4.76294E-20,0.000112658,4.31E-06,1.7918E-06,4.92006E-16,0.000154137,8.7931E-173,1.85688E-33,3.50504E-24,0.000155928,-0.00245552,9.84324E-07,3.79776E-14,2.26826E-05,1.1477E-174,7.4463E-47,3.49334E-30,2.3667E-05
80.33258,100.026,99.99966,100.06,0.002168374,6.11914E-06,9.77309E-11,0.000120657,3.5495E-163,2.23451E-31,7.17149E-20,0.000126776,0.000240108,2.29866E-06,8.72567E-16,0.000170737,5.2661E-171,3.80032E-33,5.65002E-24,0.000173035,-0.001040338,1.24973E-06,5.95443E-14,2.55582E-05,5.1444E-173,1.93488E-46,6.19539E-30,2.68079E-05
83.19733,100.012,99.98791,100.06,0.003562027,7.76904E-06,1.43192E-10,0.000135,2.1258E-161,4.57319E-31,1.0798E-19,0.000142769,0.001632934,2.9489E-06,1.54749E-15,0.000189124,3.1538E-169,7.77779E-33,9.10767E-24,0.000192073,0.00236661,1.5867E-06,9.33583E-14,2.87983E-05,2.306E-171,5.02769E-46,1.09875E-29,3.0385E-05
86.06207,100.006,99.98576,100.052,0.000779079,9.86379E-06,2.09799E-10,0.000151047,1.2731E-159,9.35953E-31,1.62584E-19,0.000160911,0.001544161,3.78308E-06,2.74445E-15,0.00020949,1.8888E-167,1.59181E-32,1.46813E-23,0.000213273,0.002094066,2.01452E-06,1.46375E-13,3.24491E-05,1.0337E-169,1.30642E-45,1.94861E-29,3.44636E-05
88.92682,100.01,99.97739,100.049,-0.001529535,1.25233E-05,3.0739E-10,0.000169002,7.6246E-158,1.91554E-30,2.44801E-19,0.000181525,0.000617585,4.85322E-06,4.86726E-15,0.000232049,1.1312E-165,3.25783E-32,2.36658E-23,0.000236902,0.001246428,2.5577E-06,2.29498E-13,3.65627E-05,4.6336E-168,3.39467E-45,3.45585E-29,3.91204E-05
91.79156,100.02,99.97932,100.046,-0.000546685,1.58999E-05,4.50376E-10,0.00018909,4.5663E-156,3.92036E-30,3.68594E-19,0.00020499,-0.00106547,6.22607E-06,8.63203E-15,0.000257036,6.7744E-164,6.6675E-32,3.81486E-23,0.000263262,-0.002711564,3.24734E-06,3.59825E-13,4.11977E-05,2.0771E-166,8.82086E-45,6.12891E-29,4.4445E-05
94.65631,100.014,99.98955,100.05,0.000520104,2.01869E-05,6.59874E-10,0.000211565,2.7347E-154,8.02346E-30,5.54988E-19,0.000231752,-0.000329449,7.98726E-06,1.53088E-14,0.000284713,4.0572E-162,1.36458E-31,6.14944E-23,0.0002927,8.56E-05,4.12292E-06,5.64163E-13,4.64202E-05,9.3106E-165,2.29206E-44,1.08696E-28,5.05432E-05
97.52105,100.0209,99.97785,100.046,-0.001237724,2.56296E-05,9.66822E-10,0.00023671,1.6378E-152,1.64209E-29,8.35637E-19,0.00026234,0.001863983,1.02466E-05,2.715E-14,0.000315367,2.4298E-160,2.79277E-31,9.91272E-23,0.000325614,0.002717904,5.23458E-06,8.84539E-13,5.23047E-05,4.1735E-163,5.9558E-44,1.9277E-28,5.75393E-05
100.3858,100.021,99.9766,100.0408,0.000994291,3.25397E-05,1.41655E-09,0.000264843,9.8086E-151,3.36073E-29,1.25821E-18,0.000297384,0.002600342,1.31451E-05,4.81503E-14,0.00034932,1.4552E-158,5.71572E-31,1.5979E-22,0.000362465,0.001371232,6.64596E-06,1.38685E-12,5.89351E-05,1.8708E-161,1.54759E-43,3.41876E-28,6.55811E-05
103.251,100.017,99.972,100.033,-0.001644607,4.13126E-05,2.07548E-09,0.000296318,5.8742E-149,6.8781E-29,1.89447E-18,0.000337632,0.002377494,1.68633E-05,8.5394E-14,0.000386926,8.7149E-157,1.16978E-30,2.57577E-22,0.00040379,0.002511419,8.43788E-06,2.17442E-12,6.64059E-05,8.3861E-160,4.02132E-43,6.06314E-28,7.48438E-05
106.115,100.033,99.96197,100.028,-0.000401774,5.24505E-05,3.04091E-09,0.000331531,3.518E-147,1.40768E-28,2.85248E-18,0.000383985,-0.000776791,2.16333E-05,1.51446E-13,0.000428578,5.2193E-155,2.3941E-30,4.15207E-22,0.000450211,0.001984922,1.07129E-05,3.40923E-12,7.48235E-05,3.7592E-158,1.04492E-42,1.07529E-27,8.55365E-05
108.98,100.021,99.96071,100.035,0.002366925,6.65906E-05,4.45543E-09,0.000370927,2.1069E-145,2.88098E-28,4.29493E-18,0.000437522,-0.0026136,2.77523E-05,2.68587E-13,0.000474709,3.1258E-153,4.89979E-30,6.69301E-22,0.000502461,0.001026574,1.36014E-05,5.34526E-12,8.4308E-05,1.6851E-156,2.71517E-42,1.90702E-27,9.79094E-05
111.845,100.018,99.95654,100.039,0.00021686,8.45421E-05,6.52793E-09,0.000415001,1.2618E-143,5.89626E-28,6.46683E-18,0.00049955,8.47E-05,3.56019E-05,4.76336E-13,0.000525801,1.872E-151,1.0028E-29,1.07889E-21,0.000561403,0.001275611,1.72685E-05,8.38073E-12,9.49944E-05,7.5535E-155,7.05524E-42,3.38208E-27,0.000112263
114.71,100.018,99.95528,100.036,7.49E-05,0.000107332,9.56446E-09,0.000464309,7.5568E-142,1.20673E-27,9.73702E-18,0.00057165,0.001245183,4.56713E-05,8.44776E-13,0.000582387,1.1211E-149,2.05234E-29,1.73914E-21,0.000628058,-0.000501372,2.19244E-05,1.314E-11,0.000107035,3.3859E-153,1.83327E-41,5.99807E-27,0.000128959
117.574,100.018,99.95904,100.034,0.001249799,0.000136262,1.40135E-08,0.000519471,4.5257E-140,2.46972E-27,1.46609E-17,0.000655747,0.000176685,5.85881E-05,1.4982E-12,0.000645055,6.7143E-148,4.20035E-29,2.80345E-21,0.000703643,0.000536405,2.78353E-05,2.06019E-11,0.000120602,1.5178E-151,4.76366E-41,1.06375E-26,0.000148437
120.439,100.007,99.95235,100.033,0.001070947,0.000172988,2.0532E-08,0.00058118,2.7104E-138,5.05456E-27,2.20747E-17,0.000754189,0.000942734,7.51571E-05,2.65704E-12,0.000714457,4.0211E-146,8.59647E-29,4.51908E-21,0.000789614,0.001269986,3.53397E-05,3.23013E-11,0.000135887,6.8034E-150,1.23781E-40,1.88655E-26,0.000171227
123.304,100.013,99.95235,100.027,0.003024398,0.000219607,3.00828E-08,0.000650213,1.6232E-136,1.03447E-26,3.32377E-17,0.00086985,0.00213226,9.64103E-05,4.71225E-12,0.000791316,2.4082E-144,1.75937E-28,7.28463E-21,0.000887727,-0.00057079,4.4867E-05,5.06446E-11,0.000153109,3.0497E-148,3.21639E-40,3.34578E-26,0.000197976
126.1685,99.99029,99.95403,100.023,0.003757697,0.00027878,4.40761E-08,0.000727436,9.7213E-135,2.11716E-26,5.00455E-17,0.001006261,0.000232434,0.000123671,8.35711E-12,0.000876431,1.4422E-142,3.60074E-28,1.17426E-20,0.001000102,0.000196365,5.69621E-05,7.94046E-11,0.000172513,1.367E-146,8.35763E-40,5.93371E-26,0.000229476
129.033,99.99207,99.95021,100.024,0.001234168,0.000353885,6.45787E-08,0.00081382,5.8221E-133,4.33302E-26,7.53529E-17,0.00116777,0.002690573,0.000158635,1.48213E-11,0.000970685,8.6375E-141,7.36933E-28,1.89287E-20,0.00112932,0.002378489,7.23171E-05,1.24497E-10,0.000194376,6.1279E-145,2.17169E-39,1.05234E-25,0.000266693
131.898,99.98107,99.94187,100.008,0.005337136,0.000449201,9.46183E-08,0.000910448,3.4867E-131,8.86801E-26,1.13458E-16,0.001359743,0.002303718,0.000203477,2.62853E-11,0.001075055,5.1729E-139,1.50822E-27,3.05126E-20,0.001278532,0.001373828,9.18097E-05,1.95196E-10,0.000219007,2.7469E-143,5.64302E-39,1.86631E-25,0.000310817
134.763,99.96138,99.94149,100.0136,0.005908137,0.000570154,1.38631E-07,0.001018531,2.0882E-129,1.81494E-25,1.70832E-16,0.001588824,-0.000930423,0.000260983,4.66168E-11,0.001190624,3.098E-137,3.08674E-27,4.91854E-20,0.001451607,0.002593865,0.000116554,3.06045E-10,0.000246759,1.2313E-141,1.46631E-38,3.30988E-25,0.000363313
137.627,99.94548,99.92764,100.0112,0.004029112,0.000723617,2.03117E-07,0.001139423,1.2506E-127,3.71447E-25,2.57219E-16,0.001863243,0.002454571,0.000334722,8.26743E-11,0.001318587,1.8554E-135,6.31735E-27,7.92853E-20,0.001653309,0.002392592,0.000147965,4.79841E-10,0.000278024,5.5194E-140,3.81013E-38,5.87003E-25,0.000425989
140.492,99.93897,99.92852,99.9968,0.003965769,0.000918294,2.976E-07,0.001274637,7.4897E-126,7.6021E-25,3.87292E-16,0.002193229,0.003059502,0.000429262,1.46622E-10,0.001460268,1.1112E-133,1.29292E-26,1.27806E-19,0.00188953,-0.000234483,0.000187834,7.52333E-10,0.000313249,2.4742E-138,9.90046E-38,1.04104E-24,0.000501083
143.357,99.92583,99.92726,99.9956,0.002190327,0.001165197,4.36031E-07,0.001425862,4.4855E-124,1.55585E-24,5.8314E-16,0.002591495,0.002289656,0.000550452,2.60032E-10,0.001617127,6.6546E-132,2.6461E-26,2.06019E-19,0.002167579,0.000268318,0.000238436,1.17957E-09,0.000352933,1.1091E-136,2.57258E-37,1.84628E-24,0.00059137
146.222,99.92484,99.92728,99.9864,0.0030507,0.001478245,6.38857E-07,0.001594986,2.6863E-122,3.18424E-24,8.78027E-16,0.00307387,0.002796105,0.000705771,4.61165E-10,0.001790782,3.9854E-130,5.41555E-26,3.32097E-19,0.002496553,0.002415096,0.000302657,1.84942E-09,0.00039764,4.9714E-135,6.68473E-37,3.27436E-24,0.000700298
149.086,99.9048,99.91684,99.97601,0.004625237,0.001875012,9.36027E-07,0.001784115,1.6088E-120,6.51689E-24,1.32203E-15,0.003660063,0.004467713,0.000904771,8.17871E-10,0.001983018,2.3868E-128,1.10835E-25,5.3533E-19,0.002887791,0.003693895,0.00038415,2.89967E-09,0.000448005,2.2285E-133,1.73699E-36,5.80704E-24,0.000832157
151.951,99.89381,99.90554,99.95841,0.003835394,0.002377651,1.37143E-06,0.001995604,9.635E-119,1.33376E-23,1.99057E-15,0.004374627,0.007013093,0.001159649,1.45049E-09,0.00219581,1.4294E-126,2.26837E-25,8.62937E-19,0.003355461,0.003703186,0.000487547,4.54634E-09,0.000504742,9.9894E-132,4.51349E-36,1.02987E-23,0.000992294
154.816,99.88041,99.89425,99.93762,0.005208199,0.003014033,2.00937E-06,0.002232077,5.7703E-117,2.72968E-23,2.99717E-15,0.00524812,0.006648868,0.001485941,2.57242E-09,0.002431336,8.5607E-125,4.64247E-25,1.39103E-18,0.00391728,0.003402721,0.000618712,7.12811E-09,0.000568656,4.4778E-130,1.17281E-35,1.82647E-23,0.001187375
157.6807,99.86415,99.88548,99.92042,0.009234463,0.003819139,2.94404E-06,0.002496468,3.4558E-115,5.58661E-23,4.51281E-15,0.006318551,0.005249745,0.001903413,4.56216E-09,0.002692004,5.127E-123,9.50135E-25,2.2423E-18,0.004595422,0.003770534,0.000785064,1.1176E-08,0.000640652,2.0072E-128,3.04748E-35,3.23922E-23,0.001425727
160.545,99.8314,99.87211,99.90683,0.009614378,0.004836724,4.31349E-06,0.002792042,2.0696E-113,1.14336E-22,6.79487E-15,0.00763308,0.005875072,0.002437138,8.09094E-09,0.002980468,3.0705E-121,1.94456E-24,3.61452E-18,0.005417614,0.004215636,0.00099598,1.75227E-08,0.000721749,8.9974E-127,7.91871E-35,5.74472E-23,0.001717747
163.41,99.80556,99.86123,99.88963,0.010717,0.006121314,6.31994E-06,0.003122448,1.2395E-111,2.34002E-22,1.0231E-14,0.009250082,0.005094612,0.003118835,1.43492E-08,0.003299661,1.8389E-119,3.97976E-24,5.8265E-18,0.00641851,0.004358633,0.001263302,2.74734E-08,0.000813095,4.0332E-125,2.05764E-34,1.01882E-22,0.002076424
166.275,99.76863,99.84684,99.88024,0.012553,0.007740472,9.25967E-06,0.003491747,7.4231E-110,4.78911E-22,1.54046E-14,0.0112415,0.005688927,0.003988448,2.54482E-08,0.003652812,1.1013E-117,8.14502E-24,9.39214E-18,0.007641285,0.005912355,0.001601954,4.3075E-08,0.000915978,1.8079E-123,5.34667E-34,1.80687E-22,0.002517975
169.14,99.7321,99.82992,99.85862,0.01233532,0.0097774,1.35668E-05,0.003904466,4.4456E-108,9.80147E-22,2.31945E-14,0.0136954,0.0109139,0.005096039,4.51321E-08,0.004043486,6.5955E-116,1.66697E-23,1.51399E-17,0.00913957,0.004383902,0.002030718,6.75366E-08,0.001031852,8.1041E-122,1.38931E-33,3.20446E-22,0.003062637
172.004,99.69831,99.82066,99.81536,0.0151287,0.01233361,1.98773E-05,0.004365645,2.6624E-106,2.00598E-21,3.49237E-14,0.0167191,0.0123755,0.006503897,8.00412E-08,0.004475606,3.9499E-114,3.41164E-23,2.4405E-17,0.0109796,0.004099417,0.002573161,1.05889E-07,0.001162346,3.6327E-120,3.61004E-33,5.68308E-22,0.003735614
174.869,99.64749,99.80106,99.78184,0.0216142,0.0155316,2.9123E-05,0.004880896,1.5945E-104,4.10547E-21,5.25842E-14,0.0204417,0.0108537,0.00828888,1.41952E-07,0.004953496,2.3656E-112,6.98232E-23,3.93402E-17,0.0132425,0.009706025,0.003258778,1.66022E-07,0.001309299,1.6284E-118,9.38052E-33,1.00789E-21,0.004568243
177.734,99.57351,99.76426,99.748,0.0300636,0.0195172,4.26687E-05,0.005456455,9.5493E-103,8.40229E-21,7.91753E-14,0.0250163,0.0155346,0.0105447,2.51751E-07,0.005481909,1.4167E-110,1.42901E-22,6.34152E-17,0.0160268,0.009081854,0.004124311,2.60302E-07,0.001474771,7.2994E-117,2.43748E-32,1.78748E-21,0.005599343
180.599,99.46696,99.74796,99.69729,0.0373834,0.0244602,6.25142E-05,0.00609926,5.719E-101,1.71963E-20,1.19213E-13,0.0306219,0.0211735,0.0133839,4.46477E-07,0.006066075,8.4847E-109,2.92463E-22,1.02223E-16,0.0194504,0.005726817,0.005215328,4.08122E-07,0.001661083,3.272E-115,6.33367E-32,3.17008E-21,0.006876819
183.4634,99.35734,99.72923,99.6297,0.0425781,0.0305536,9.1588E-05,0.006817005,3.4251E-99,3.5194E-20,1.79498E-13,0.0374622,0.0275327,0.016939,7.91821E-07,0.006711736,5.0814E-107,5.98558E-22,1.64781E-16,0.0236515,0.007239806,0.006587935,6.39885E-07,0.001870837,1.4667E-113,1.64577E-31,5.62209E-21,0.008459412
186.328,99.22165,99.70486,99.54109,0.0530846,0.0380093,0.00013418,0.00761824,2.05125E-97,7.20287E-20,2.70268E-13,0.0457617,0.0317267,0.0213619,1.40429E-06,0.007425202,3.0432E-105,1.22502E-21,2.65623E-16,0.0287885,0.0108131,0.008310674,1.00326E-06,0.00210696,6.5747E-112,4.27646E-31,9.97073E-21,0.0104186
189.193,99.05285,99.6668,99.45144,0.0631853,0.0470473,0.000196571,0.008512425,1.22846E-95,1.47415E-19,4.06938E-13,0.05575631,0.0369344,0.02682036,2.49048E-06,0.008213381,1.8225E-103,2.50714E-21,4.28175E-16,0.0350362,0.0138333,0.0104663,1.57299E-06,0.002372732,2.9471E-110,1.11121E-30,1.7683E-20,0.0128406
192.058,98.86336,99.62543,99.324,0.0705465,0.0578798,0.000287956,0.009510051,7.35718E-94,3.01701E-19,6.12722E-13,0.0676778,0.0453367,0.0334905,4.41681E-06,0.009083852,1.0915E-101,5.13115E-21,6.90207E-16,0.0425788,0.0131641,0.0131535,2.46626E-06,0.002671838,1.3211E-108,2.88744E-30,3.13606E-20,0.01582781
194.922,98.64732,99.5912,99.184,0.079266,0.0706844,0.000421788,0.0106227,4.40611E-92,6.17465E-19,9.22567E-13,0.0817289,0.0513515,0.0415429,7.8331E-06,0.0100449,6.5368E-100,1.05015E-20,1.11259E-15,0.05159558,0.0158957,0.0164875,3.86678E-06,0.003008406,5.9218E-107,7.50285E-30,5.56176E-20,0.0194998
197.787,98.40034,99.53481,99.03024,0.0962147,0.0855692,0.000617746,0.0118632,2.6388E-90,1.26371E-18,1.3891E-12,0.0980501,0.0586123,0.05112222,1.38917E-05,0.0111056,3.91488E-98,2.14924E-20,1.79347E-15,0.0622417,0.02203,0.02059986,6.06261E-06,0.003387065,2.6545E-105,1.94958E-29,9.86373E-20,0.023993
200.652,98.08709,99.46486,98.84653,0.116257,0.102529,0.000904578,0.0132456,1.58034E-88,2.58633E-18,2.09154E-12,0.116679,0.0727389,0.0623202,2.46361E-05,0.0122757,2.34456E-96,4.39867E-20,2.89101E-15,0.0746205,0.0287811,0.0256357,9.50534E-06,0.003812994,1.1899E-103,5.06588E-29,1.74932E-19,0.0294582
203.517,97.73303,99.37113,98.61413,0.139401,0.121398,0.00132424,0.0147854,9.46455E-87,5.29322E-18,3.14921E-12,0.137508,0.088461,0.0751436,4.36898E-05,0.0135662,1.40415E-94,9.00238E-20,4.66024E-15,0.0887535,0.0377369,0.031748,1.4903E-05,0.004291994,5.3339E-102,1.31635E-28,3.1024E-19,0.0360549
206.381,97.29857,99.25099,98.34164,0.157435,0.14181,0.001937838,0.0164997,5.66818E-85,1.08332E-17,4.74173E-12,0.160248,0.100824,0.0894838,7.74766E-05,0.0149885,8.40923E-93,1.84244E-19,7.51216E-15,0.10455,0.0464542,0.0390871,2.33655E-05,0.004830541,2.3909E-100,3.42045E-28,5.50207E-19,0.043941
209.246,96.82824,99.10292,98.02772,0.181543,0.163173,0.002834139,0.0184072,3.39464E-83,2.21713E-17,7.13956E-12,0.184414,0.119753,0.105095,0.000137383,0.0165555,5.03624E-91,3.77076E-19,1.21094E-14,0.121788,0.0592324,0.0477854,3.66329E-05,0.005435877,1.07176E-98,8.88789E-28,9.75788E-19,0.0532579
212.111,96.25683,98.91548,97.65353,0.205674,0.184668,0.004141552,0.0205282,2.033E-81,4.5376E-17,1.07499E-11,0.209338,0.140919,0.12159,0.00024358,0.0182808,3.01613E-89,7.71727E-19,1.952E-14,0.140115,0.0642385,0.0579364,5.74323E-05,0.00611607,4.80423E-97,2.30947E-27,1.73055E-18,0.06410992
214.9756,95.65537,98.738,97.23304,0.224296,0.205289,0.006044759,0.0228849,1.21755E-79,9.28673E-17,1.61861E-11,0.234219,0.156383,0.138463,0.000431779,0.0201792,1.80634E-87,1.57943E-18,3.14656E-14,0.159074,0.0728658,0.0695692,9.00381E-05,0.006880119,2.15355E-95,6.00105E-27,3.06911E-18,0.0765394
217.84,94.96756,98.49105,96.76612,0.251359,0.223908,0.00880702,0.0255015,7.29176E-78,1.90063E-16,2.43711E-11,0.258216,0.170023,0.15513,0.0007651,0.0222666,1.08179E-85,3.23248E-18,5.07216E-14,0.178162,0.0942612,0.0826227,0.000141147,0.007738021,9.65338E-94,1.55934E-26,5.44303E-18,0.0905019
220.705,94.21285,98.21062,96.25151,0.27756,0.239365,0.0127989,0.028404,4.36699E-76,3.88986E-16,3.66953E-11,0.280568,0.191804,0.170991,0.001354842,0.0245602,6.4788E-84,6.61564E-18,8.17619E-14,0.196906,0.109407,0.096924,0.000221248,0.008700891,4.32723E-92,4.05188E-26,9.65317E-18,0.105846
223.57,93.366,97.87083,95.65114,0.305516,0.250577,0.0185317,0.0316206,2.61533E-74,7.96103E-16,5.52516E-11,0.300729,0.220585,0.185484,0.002396356,0.0270781,3.88006E-82,1.35396E-17,1.31798E-13,0.214959,0.12683,0.112178,0.000346758,0.009781035,1.9397E-90,1.05286E-25,1.71198E-17,0.122306
226.435,92.44933,97.47747,94.98345,0.315977,0.256633,0.0266918,0.0351813,1.56631E-72,1.62932E-15,8.31917E-11,0.318506,0.23986,0.198134,0.004229813,0.0298398,2.32375E-80,2.77104E-17,2.12454E-13,0.232204,0.139319,0.127976,0.000543351,0.0109921,8.69493E-89,2.7358E-25,3.03618E-17,0.139512
229.299,91.56279,97.06054,94.30417,0.324168,0.256906,0.0381602,0.0391181,9.38038E-71,3.33458E-15,1.25261E-10,0.334184,0.255495,0.208565,0.007439114,0.0328657,1.39166E-78,5.67124E-17,3.42469E-13,0.248869,0.1561194,0.14382,0.000851113,0.012349,3.89755E-87,7.10883E-25,5.38462E-17,0.157021
232.164,90.60993,96.57292,93.54285,0.347532,0.251137,0.0539941,0.0434651,5.61786E-69,6.8246E-15,1.88603E-10,0.348596,0.266807,0.216499,0.01300138,0.0361776,8.33457E-77,1.16069E-16,5.52051E-13,0.265678,0.168283,0.159168,0.001332493,0.0138685,1.74712E-85,1.8472E-24,9.54958E-17,0.174369
235.029,89.59024,96.08171,92.75696,0.369409,0.239516,0.0753263,0.048258,3.36445E-67,1.39673E-14,2.83977E-10,0.3631,0.279352,0.221734,0.0224782,0.039798,4.99145E-75,2.37547E-16,8.8989E-13,0.28401,0.185373,0.173481,0.002084408,0.0155685,7.83154E-84,4.79984E-24,1.69361E-16,0.191134
237.894,88.50068,95.51351,91.93111,0.389674,0.222713,0.103138,0.0535338,2.01495E-65,2.85857E-14,4.27581E-10,0.379385,0.29696,0.224118,0.0381635,0.0437505,2.98935E-73,4.86168E-16,1.43448E-12,0.306032,0.209255,0.186267,0.003256423,0.0174689,3.51058E-82,1.24722E-23,3.0036E-16,0.206992
240.7583,87.35135,94.89466,91.04809,0.40508,0.201845,0.137883,0.05933088,1.20673E-63,5.85038E-14,6.43803E-10,0.399059,0.336546,0.223527,0.06292,0.0480592,1.79028E-71,9.94996E-16,2.31233E-12,0.334507,0.222666,0.197115,0.005077225,0.0195913,1.57363E-80,3.24082E-23,5.32684E-16,0.221783
243.623,86.17611,94.2417,89.98974,0.421479,0.178348,0.179053,0.0656883,7.22701E-62,1.19735E-13,9.69367E-10,0.423089,0.397821,0.219863,0.099208,0.0527489,1.07219E-69,2.03637E-15,3.72742E-12,0.371819,0.234547,0.2057,0.007891537,0.02195903,7.05398E-79,8.42113E-23,9.4471E-16,0.235551
246.488,84.9307,93.55554,88.77253,0.450743,0.153783,0.224882,0.0726452,4.32816E-60,2.4505E-13,1.45956E-09,0.45131,0.451331,0.213068,0.147017,0.0578446,6.42119E-68,4.16766E-15,6.00848E-12,0.417929,0.247523,0.211786,0.0122072,0.0245973,3.16198E-77,2.18819E-22,1.67543E-15,0.24859
249.353,83.57012,92.82278,87.41314,0.480179,0.129611,0.272481,0.0802403,2.59211E-58,5.01524E-13,2.19764E-09,0.482333,0.490568,0.203169,0.201872,0.0633709,3.84561E-66,8.52961E-15,9.68551E-12,0.468411,0.260367,0.215202,0.0187456,0.02753308,1.41739E-75,5.6859E-22,2.97136E-15,0.26148
252.217,82.16853,92.05781,85.96906,0.516995,0.107006,0.318493,0.08851079,1.55238E-56,1.02642E-12,3.30896E-09,0.51401,0.518402,0.190328,0.255658,0.0693524,2.30308E-64,1.74568E-14,1.56127E-11,0.515339,0.264384,0.215834,0.0284724,0.030795,6.35353E-74,1.47745E-21,5.26968E-15,0.275101
255.082,80.62377,91.29736,84.4609,0.553544,0.08675556,0.359979,0.0974916,9.29709E-55,2.1007E-12,4.98227E-09,0.544227,0.547499,0.174898,0.300856,0.0758122,1.3793E-62,3.57273E-14,2.51673E-11,0.551567,0.283969,0.213616,0.0425562,0.0344134,2.84804E-72,3.83909E-21,9.34572E-15,0.290585
257.947,79.00217,90.44063,82.84894,0.58466,0.0692559,0.395092,0.107214,5.5679E-53,4.29931E-12,7.50173E-09,0.571562,0.565169,0.157447,0.334162,0.0827722,8.26045E-61,7.31199E-14,4.05689E-11,0.574381,0.310937,0.208531,0.0621699,0.0384197,1.27665E-70,9.97566E-21,1.65745E-14,0.309121
260.812,77.26695,89.52465,81.22216,0.609905,0.0545764,0.423102,0.117705,3.33458E-51,8.79903E-12,1.12953E-08,0.595383,0.577196,0.138736,0.356384,0.0902522,4.94713E-59,1.49648E-13,6.5396E-11,0.585372,0.330393,0.200635,0.0880539,0.0428465,5.72272E-69,2.59213E-20,2.93948E-14,0.331535
263.676,75.52277,88.54617,79.54016,0.61561,0.042557,0.4426944,0.128986,1.99703E-49,1.80082E-11,1.70071E-08,0.614237,0.587347,0.119641,0.370155,0.0982688,2.96277E-57,3.06272E-13,1.05416E-10,0.588065,0.353398,0.190079,0.119889,0.047727,2.56524E-67,6.7355E-20,5.21313E-14,0.357695
266.541,73.7818,87.49985,77.85548,0.605425,0.0329048,0.436633,0.141068,1.19601E-47,3.68558E-11,2.56074E-08,0.610606,0.584286,0.101033,0.377914,0.106836,1.77438E-55,6.26821E-13,1.69928E-10,0.585783,0.375117,0.177144,0.155818,0.0530943,1.1499E-65,1.75019E-19,9.24543E-14,0.386056
269.406,72.1465,86.38605,76.18371,0.464948,0.0252718,0.293744,0.153958,7.16274E-46,7.54295E-11,3.85567E-08,0.472974,0.574275,0.0836581,0.380384,0.115962,1.06265E-53,1.28286E-12,2.73919E-10,0.580003,0.39928,0.162253,0.192632,0.0589808,5.15446E-64,4.54777E-19,1.63967E-13,0.413866
272.2705,71.15643,85.21274,74.57668,0.260231,0.0193078,0.0630255,0.167648,4.28972E-44,1.54375E-10,5.80544E-08,0.249981,0.556902,0.0680499,0.373412,0.125651,6.36417E-52,2.62552E-12,4.4155E-10,0.567113,0.427687,0.14597,0.226787,0.0654177,2.31054E-62,1.18172E-18,2.90793E-13,0.438174
275.135,70.57408,83.94623,73.01438,0.189063,0.0146913,0.006652571,0.182122,2.56905E-42,3.15946E-10,8.74116E-08,0.203466,0.529919,0.0544981,0.338851,0.135902,3.81141E-50,5.37341E-12,7.11765E-10,0.529251,0.452292,0.128953,0.255644,0.0724332,1.03571E-60,3.07063E-18,5.15718E-13,0.45703
278,69.98979,82.62812,71.58872,0.211365,0.0111435,0.000624083,0.197349,1.53859E-40,6.4662E-10,1.31615E-07,0.209117,0.43649,0.0430704,0.242027,0.146708,2.28263E-48,1.09973E-11,1.14734E-09,0.431805,0.466261,0.111893,0.278072,0.0800522,4.6427E-59,7.97889E-18,9.14622E-13,0.470017
280.865,69.35345,81.27445,70.54273,0.22825,0.008432173,5.7736E-05,0.213288,9.21441E-39,1.32338E-09,1.9817E-07,0.221778,0.304512,0.0336669,0.109966,0.158052,1.36704E-46,2.25072E-11,1.84948E-09,0.301684,0.478866,0.0954346,0.294175,0.0882946,2.08111E-57,2.07327E-17,1.62207E-12,0.477904
283.729,68.6741,79.88261,69.79405,0.239721,0.006368761,5.32612E-06,0.229881,5.51845E-37,2.70845E-09,2.98382E-07,0.236255,0.237439,0.0260825,0.0334693,0.169912,8.1871E-45,4.60636E-11,2.98132E-09,0.229464,0.488826,0.0801041,0.304554,0.09717428,9.32881E-56,5.3873E-17,2.87673E-12,0.481833
286.594,67.97864,78.48431,69.1432,0.252752,0.004803534,4.90681E-07,0.247058,3.30492E-35,5.54314E-09,4.4927E-07,0.251863,0.232342,0.0200632,0.008553209,0.182259,4.90314E-43,9.42743E-11,4.80579E-09,0.210876,0.48667,0.066269,0.309467,0.106697,4.18169E-54,1.39986E-16,5.10184E-12,0.482434
289.459,67.2291,77.11504,68.4466,0.265727,0.003619116,4.5166E-08,0.264739,1.97929E-33,1.13447E-08,6.76459E-07,0.268359,0.24295,0.0153466,0.002077185,0.195055,2.93646E-41,1.92943E-10,7.7468E-09,0.212479,0.479751,0.0541276,0.307968,0.116861,1.87449E-52,3.63747E-16,9.04807E-12,0.478957
292.324,66.45933,75.74424,67.74423,0.280242,0.002724534,4.15502E-09,0.282828,1.18537E-31,2.32181E-08,1.01853E-06,0.285554,0.251626,0.0116876,0.000497998,0.208254,1.75861E-39,3.94879E-10,1.24876E-08,0.220439,0.469362,0.0437272,0.296945,0.127653,8.40248E-51,9.45177E-16,1.60466E-11,0.468324
295.188,65.62534,74.42426,67.02808,0.298904,0.002049813,3.82084E-10,0.301223,7.09906E-30,4.75185E-08,1.53359E-06,0.303275,0.255864,0.008870949,0.000119017,0.221803,1.05322E-37,8.08166E-10,2.01297E-08,0.230793,0.450858,0.0349989,0.270687,0.139049,3.7665E-49,2.456E-15,2.84586E-11,0.444735
298.0532,64.73659,73.16873,66.26983,0.31068,0.001541466,3.51261E-11,0.319814,4.25149E-28,9.72519E-08,2.30909E-06,0.321358,0.264612,0.006715678,2.84223E-05,0.235643,6.30758E-36,1.654E-09,3.24484E-08,0.242387,0.413651,0.0277982,0.223821,0.151013,1.68835E-47,6.38178E-15,5.04709E-11,0.402632
300.918,63.83053,72.06844,65.5119,0.3321224,0.001158777,3.22863E-12,0.338484,2.54615E-26,1.99037E-07,3.47675E-06,0.339646,0.267056,0.005073989,6.78612E-06,0.249709,3.77757E-34,3.38511E-09,5.23059E-08,0.25479,0.351855,0.0219407,0.16023,0.163499,7.56823E-46,1.65828E-14,8.95098E-11,0.34567
303.783,62.8393,71.1627,64.74074,0.349417,0.000870863,2.96699E-13,0.357117,1.52481E-24,4.0735E-07,5.23484E-06,0.357993,0.272845,0.003827859,1.62018E-06,0.263931,2.26233E-32,6.92799E-09,8.43156E-08,0.267761,0.288882,0.0172298,0.0973611,0.176445,3.3925E-44,4.30894E-14,1.58744E-10,0.291036
306.647,61.81956,70.39522,63.94571,0.3604,0.000654351,2.73005E-14,0.375595,9.13155E-23,8.33682E-07,7.88191E-06,0.376258,0.288147,0.00288447,3.86807E-07,0.278237,1.3549E-30,1.41789E-08,1.35914E-07,0.281122,0.247094,0.0134756,0.051518,0.189782,1.52072E-42,1.11966E-13,2.81532E-10,0.254776
309.512,60.75658,69.725,63.10061,0.381748,0.000491593,2.55281E-15,0.393806,5.46827E-21,1.7062E-06,1.18674E-05,0.394312,0.29666,0.002171707,9.23478E-08,0.292552,8.11429E-29,2.90188E-08,2.1909E-07,0.294725,0.228513,0.0105056,0.0249201,0.203429,6.81672E-41,2.90937E-13,4.99293E-10,0.238854
312.377,59.62109,69.07069,62.24894,0.40419,0.000369275,2.22003E-16,0.411645,3.2744E-19,3.49184E-06,1.7868E-05,0.412036,0.309326,0.001634002,2.20473E-08,0.306802,4.8596E-27,5.93902E-08,3.53166E-07,0.308437,0.23635,0.008169425,0.0114826,0.217296,3.05567E-39,7.55987E-13,8.85492E-10,0.236948
315.242,58.44321,68.36367,61.34036,0.420456,0.000277368,0,0.429013,1.96044E-17,7.14604E-06,2.69021E-05,0.429325,0.322621,0.001228827,5.26363E-09,0.320913,2.91034E-25,1.21548E-07,5.69292E-07,0.322143,0.248397,0.00634013,0.005166994,0.231288,1.36972E-37,1.96439E-12,1.57041E-09,0.242795
318.106,57.22518,67.64761,60.419,0.439362,0.000208321,0,0.445824,1.17352E-15,1.46235E-05,4.0503E-05,0.446088,0.333218,0.000923776,1.25665E-09,0.334815,1.74298E-23,2.48762E-07,9.1768E-07,0.33574,0.256842,0.004912802,0.002299701,0.245306,6.13991E-36,5.10438E-12,2.78511E-09,0.252519
320.971,55.92537,66.89054,59.4376,0.464265,0.000156455,0,0.461996,7.02184E-14,2.99218E-05,6.09774E-05,0.462244,0.343248,0.00069426,3.00015E-10,0.348442,1.04384E-21,5.09118E-07,1.47927E-06,0.349138,0.267985,0.003802196,0.001018478,0.259251,2.75225E-34,1.32634E-11,4.93935E-09,0.264072
323.836,54.55603,66.10654,58.4355,0.486594,0.000117497,0,0.477391,4.1988E-12,6.12099E-05,9.17963E-05,0.477662,0.354892,0.000521658,7.16259E-11,0.361732,6.25148E-20,1.04196E-06,2.38452E-06,0.362257,0.28077,0.002939885,0.000450055,0.273026,1.23372E-32,3.44645E-11,8.7599E-09,0.276416
326.701,53.13858,65.2836,57.40036,0.500434,8.82373E-05,0,0.491101,2.50769E-10,0.000125154,0.000138179,0.491453,0.370433,0.000391905,1.71001E-11,0.374631,3.74387E-18,2.13244E-06,3.84373E-06,0.375029,0.292919,0.002271482,0.000198678,0.286538,5.53023E-31,8.9554E-11,1.55356E-08,0.289008
329.5654,51.70864,64.43078,56.32021,0.497402,6.62626E-05,0,0.493816,1.49455E-08,0.000255648,0.000207969,0.494346,0.383067,0.00029439,4.08255E-12,0.387092,2.24211E-16,4.36413E-06,6.19588E-06,0.387397,0.303353,0.001754049,8.76678E-05,0.2997005,2.47899E-29,2.32702E-10,2.75522E-08,0.301542
332.43,50.37344,63.53758,55.21202,0.398587,4.97596E-05,0,0.408533,8.87406E-07,0.000521164,0.000312942,0.409418,0.401192,0.00022112,9.74654E-13,0.399071,1.34269E-14,8.93102E-06,9.98728E-06,0.399311,0.313509,0.001353893,3.86763E-05,0.312438,1.11122E-27,6.04663E-10,4.88635E-08,0.313831
335.295,49.48016,62.62666,54.02068,0.159249,3.73663E-05,0,0.135226,5.22918E-05,0.001058174,0.000470754,0.136845,0.414577,0.000166074,2.32687E-13,0.410499,8.04025E-13,1.82756E-05,1.60985E-05,0.4107,0.324808,0.00104467,1.70612E-05,0.324685,4.98116E-26,1.57119E-09,8.66589E-08,0.325747
338.16,49.39721,61.67884,52.82981,0.01688,2.80595E-05,0,0.0166219,0.002849125,0.002131208,0.000707817,0.0223381,0.417713,0.000124725,5.55955E-14,0.42102,4.81394E-11,3.73915E-05,2.59484E-05,0.421208,0.338886,0.000805862,7.52586E-06,0.336387,2.23283E-24,4.08265E-09,1.53688E-07,0.337201
341.024,49.29872,60.68638,51.64382,0.0343953,2.10705E-05,0,0.001613488,0.0328812,0.004224451,0.001063513,0.03980372,0.416201,9.36678E-05,1.32494E-14,0.427565,2.88151E-09,7.64781E-05,4.18232E-05,0.427777,0.348966,0.000621518,3.31966E-06,0.347502,1.00089E-22,1.06086E-08,2.72565E-07,0.348128
343.889,49.19848,59.66826,50.48839,0.0434985,1.58223E-05,0,0.00015241,0.0374346,0.008122923,0.001596266,0.047322,0.382134,7.03419E-05,3.2041E-15,0.404731,1.72381E-07,0.000156322,6.74049E-05,0.405025,0.360216,0.000479269,1.4643E-06,0.358,4.48653E-21,2.75658E-08,4.83389E-07,0.358482
346.754,49.05141,58.61133,49.55302,0.0544243,1.18812E-05,0,1.43387E-05,0.03332603,0.0147925,0.00239212,0.0505369,0.221204,5.28236E-05,7.79377E-16,0.246767,1.02982E-05,0.000319103,0.000108622,0.247258,0.381057,0.000369533,6.45893E-07,0.367861,2.01113E-19,7.16284E-08,8.57284E-07,0.368232
349.619,48.89267,57.49693,49.23322,0.0579024,8.92176E-06,0,1.34667E-06,0.0277591,0.0246903,0.003576334,0.056036,0.0551863,3.96676E-05,1.73195E-16,0.0541073,0.000604272,0.000649652,0.000175008,0.0555759,0.3901,0.000284896,2.849E-07,0.37707,9.01494E-18,1.86122E-07,1.52037E-06,0.377357
352.483,48.72406,56.39249,49.13993,0.0634428,6.69946E-06,0,1.26299E-07,0.0214133,0.0366169,0.005328161,0.0633652,0.025247,2.97877E-05,0,0.00679036,0.0184379,0.001315502,0.000281885,0.0268554,0.397136,0.000219628,1.25668E-07,0.385602,4.041E-16,4.83628E-07,2.69634E-06,0.385825
355.3481,48.52503,55.2283,49.02886,0.0694566,5.0307E-06,0,1.18302E-08,0.0152362,0.0477045,0.007897369,0.0708431,0.0398176,2.23684E-05,0,0.000771816,0.0360167,0.002635323,0.00045381,0.0399,0.403262,0.000169303,5.54313E-08,0.393351,1.81135E-14,1.25667E-06,4.78185E-06,0.393526
358.213,48.31722,54.0846,48.91253,0.0733477,3.7776E-06,0,1.10682E-09,0.0100795,0.0554192,0.011618,0.0771205,0.0435446,1.67969E-05,0,8.66029E-05,0.0352928,0.005169833,0.000730028,0.0412961,0.396677,0.000130504,2.44504E-08,0.39984,8.11907E-13,3.26529E-06,8.4803E-06,0.399982
361.078,48.10098,52.95805,48.78096,0.0772744,2.83663E-06,0,1.03443E-10,0.006298765,0.0589917,0.0169088,0.0822021,0.04706877,1.26131E-05,0,9.69289E-06,0.0328616,0.009753194,0.001172901,0.04381002,0.387827,0.000100593,1.07849E-08,0.403027,3.63892E-11,8.484E-06,1.50389E-05,0.403152
363.942,47.87967,51.86558,48.64301,0.0834772,2.13005E-06,0,9.65844E-12,0.003782534,0.0587716,0.0242401,0.0867964,0.049027,9.47138E-06,0,1.08344E-06,0.0287877,0.0172038,0.001880685,0.04788275,0.369967,7.75356E-05,4.75715E-09,0.394761,1.6307E-09,2.20407E-05,2.66688E-05,0.394887
366.807,47.62491,50.85116,48.49624,0.0890697,1.59947E-06,0,9.00979E-13,0.002213988,0.0552138,0.03404331,0.0914727,0.053842,7.11219E-06,0,1.20974E-07,0.0229617,0.0274241,0.003005979,0.0533991,0.327334,5.97621E-05,2.09835E-09,0.348819,7.30485E-08,5.72412E-05,4.72886E-05,0.348983
369.672,47.3629,50.03442,48.33525,0.0991734,1.20105E-06,0,8.40146E-14,0.001275753,0.0486815,0.0465451,0.0965036,0.05991703,5.34062E-06,0,1.3494E-08,0.0162366,0.0385337,0.004780414,0.0595561,0.237675,4.60622E-05,9.25567E-10,0.229694,3.2695E-06,0.000148534,8.38403E-05,0.229976
372.537,47.05944,49.50667,48.15623,0.106815,9.01881E-07,0,7.81446E-15,0.000728353,0.0398509,0.0615592,0.102139,0.0666894,4.01033E-06,0,1.50383E-09,0.0101516,0.0477273,0.007542436,0.0654254,0.100214,3.55024E-05,4.08262E-10,0.0942513,0.000145703,0.000384584,0.000148609,0.0949657
375.401,46.76233,49.40958,47.95108,0.112943,6.77228E-07,0,7.01818E-16,0.000413609,0.0300407,0.07834289,0.108798,0.0732387,3.01139E-06,0,1.67452E-10,0.005745064,0.0532956,0.01175624,0.0707999,0.0322519,2.73632E-05,1.80082E-10,0.0272831,0.005806677,0.000990184,0.000263305,0.0343706
378.266,46.42206,49.27104,47.73563,0.117353,5.08536E-07,0,0,0.000234156,0.0208838,0.09566248,0.116781,0.0760388,2.26128E-06,0,1.86315E-11,0.003042328,0.0550928,0.0179919,0.0761293,0.0522751,2.10898E-05,7.94329E-11,0.006901675,0.0450535,0.002513275,0.000466178,0.0549557
381.131,46.08341,49.11203,47.51386,0.123523,3.81862E-07,0,0,0.000132332,0.0135495,0.112078,0.12576,0.0818114,1.69801E-06,0,2.07159E-12,0.001549976,0.0535608,0.02681535,0.0819278,0.0626465,1.62546E-05,3.50373E-11,0.001680894,0.0514547,0.006159724,0.000824285,0.0601359
383.996,45.70809,48.91085,47.26259,0.134679,2.86743E-07,0,0,7.47124E-05,0.008347944,0.125763,0.134186,0.0881403,1.27505E-06,0,2.30239E-13,0.000773472,0.0490647,0.0385406,0.0883801,0.0668115,1.25279E-05,1.54547E-11,0.000405304,0.0481192,0.0139477,0.001454133,0.06393879
386.8603,45.31348,48.72661,47.00396,0.137253,2.15317E-07,0,0,4.21578E-05,0.004966272,0.126958,0.131967,0.0926186,9.57443E-07,0,2.55104E-14,0.000381903,0.0420051,0.0528866,0.0952746,0.0711971,9.65562E-06,6.81697E-12,9.74392E-05,0.0417722,0.0271615,0.002554945,0.0715957
389.725,44.94382,48.50418,46.73625,0.0740206,1.61683E-07,0,0,2.37809E-05,0.002889958,0.0663107,0.0692246,0.101253,7.18951E-07,0,2.83648E-15,0.000187566,0.03324785,0.0687657,0.102202,0.0797541,7.44183E-06,3.0069E-12,2.33974E-05,0.0323194,0.0427116,0.00445775,0.0795196
392.59,44.89005,48.27253,46.42969,0.007502075,1.21409E-07,0,0,1.34122E-05,0.001659481,0.008781921,0.0104549,0.105131,5.39865E-07,0,3.56276E-16,9.18791E-05,0.0242146,0.0845058,0.108813,0.0812525,5.7356E-06,1.32635E-12,5.61411E-06,0.0215247,0.05464703,0.007684964,0.083868
395.455,44.87969,48.03105,46.12782,0.00205638,9.11667E-08,0,0,7.56357E-06,0.000945511,0.00070722,0.001660386,0.115324,4.05388E-07,0,0,4.49489E-05,0.016327,0.0984898,0.114862,0.0880442,4.42056E-06,5.85025E-13,1.34632E-06,0.0123692,0.0608731,0.0129859,0.0862339
398.319,44.86934,47.76885,45.77058,0.002065053,6.84576E-08,0,0,4.26511E-06,0.0005363,5.36436E-05,0.000594277,0.123979,3.04409E-07,0,0,2.19758E-05,0.0103456,0.10973,0.120097,0.093929,3.40702E-06,2.58074E-13,3.22702E-07,0.006367228,0.0628619,0.0212516,0.0904845
401.184,44.86658,47.49645,45.42293,0.002191214,5.14053E-08,0,0,2.40503E-06,0.000303414,4.02572E-06,0.000309896,0.12494,2.28583E-07,0,0,1.07408E-05,0.006270534,0.117569,0.12385,0.10069,2.62586E-06,1.13796E-13,7.73155E-08,0.003068043,0.06203091,0.0331486,0.0982503
404.049,44.85279,47.19613,45.0592,0.003911197,3.86005E-08,0,0,1.35613E-06,0.000171407,3.00608E-07,0.000173103,0.118146,1.71644E-07,0,0,5.24886E-06,0.003691508,0.114183,0.11788,0.102883,2.02381E-06,5.01932E-14,1.85166E-08,0.00142813,0.0586486,0.0484389,0.108518
406.914,44.84796,46.89518,44.75791,0.000921196,2.89854E-08,0,0,7.64677E-07,9.67533E-05,2.23752E-08,9.75693E-05,0.0585685,1.28889E-07,0,0,2.56484E-06,0.002134503,0.0509428,0.05308002,0.113693,1.55979E-06,2.2129E-14,4.43311E-09,0.000653741,0.05223288,0.0654654,0.1183536
409.778,44.84279,46.53218,44.71299,0.002655767,2.17653E-08,0,0,4.31174E-07,5.45882E-05,1.66188E-09,5.50428E-05,0.006877934,9.67832E-08,0,0,1.25325E-06,0.001221086,0.004742307,0.005964744,0.122666,1.20216E-06,9.74554E-15,1.06101E-09,0.000296929,0.0425416,0.0816437,0.124483
412.643,44.82521,46.18898,44.6975,0.004671042,1.63437E-08,0,0,2.43123E-07,3.07906E-05,1.23256E-10,3.10502E-05,0.004056946,7.26752E-08,0,0,6.12366E-07,0.000694221,0.000283433,0.000978339,0.126366,9.2653E-07,4.32321E-15,2.5387E-10,0.000134384,0.03080488,0.0948136,0.125754
415.508,44.81555,45.82808,44.6866,0.002923283,1.22726E-08,0,0,1.37088E-07,1.73649E-05,9.1327E-12,1.75143E-05,0.004878627,5.45722E-08,0,0,2.99212E-07,0.000393278,1.63158E-05,0.000409948,0.12673,7.14094E-07,1.90514E-15,6.0729E-11,6.07201E-05,0.0196834,0.103785,0.12353
418.372,44.80832,45.48561,44.66784,0.00299114,9.21557E-09,0,0,7.72984E-08,9.79246E-06,6.76277E-13,9.87897E-06,0.003855525,4.09786E-08,0,0,1.46199E-07,0.000222342,9.34667E-07,0.000223463,0.126719,5.50367E-07,8.06022E-16,1.45241E-11,2.74158E-05,0.0113189,0.104677,0.116024
421.237,44.7959,45.13042,44.66975,0.00550868,6.92002E-09,0,0,4.35855E-08,5.52191E-06,5.00449E-14,5.57241E-06,0.002298091,3.07711E-08,0,0,7.14348E-08,0.000125557,5.34375E-08,0.000125713,0.07675231,4.24178E-07,3.66374E-16,3.47295E-12,1.23744E-05,0.006053681,0.0739953,0.0800618
424.102,44.78279,45.04665,44.6582,0.004958714,5.19629E-09,0,0,2.45762E-08,3.11369E-06,3.69515E-15,3.14347E-06,0.003287863,2.31062E-08,0,0,3.4904E-08,7.08564E-05,3.05165E-09,7.09174E-05,0.0150535,3.26922E-07,1.46549E-16,8.30295E-13,5.58449E-06,0.00310123,0.0187274,0.0218345
426.967,44.77004,45.02142,44.64714,0.00389842,3.90193E-09,0,0,1.38575E-08,1.75572E-06,2.64038E-16,1.77348E-06,0.003563462,1.73506E-08,0,0,1.70545E-08,3.99721E-05,1.74142E-10,4.00067E-05,0.00292574,2.51965E-07,7.32747E-17,1.98425E-13,2.52006E-06,0.00155204,0.002313495,0.003868307
429.831,44.75935,45.01532,44.63702,0.002886208,2.92998E-09,0,0,7.8137E-09,9.89993E-07,3.77291E-17,1.00074E-06,0.003752459,1.30287E-08,0,0,8.33305E-09,2.25447E-05,9.93303E-12,2.25661E-05,-0.001229573,1.94195E-07,0,4.73845E-14,1.13718E-06,0.000767439,0.000247935,0.001016706
432.696,44.75108,45.02656,44.6274,0.004347893,2.20014E-09,0,0,4.40583E-09,5.5822E-07,0,5.64826E-07,0.005145237,9.78331E-09,0,0,4.07162E-09,1.2714E-05,5.66423E-13,1.27278E-05,0.000308441,1.49669E-07,0,1.12881E-14,5.13141E-07,0.000377189,2.60804E-05,0.000403932
435.561,44.7387,45.01407,44.61274,0.00266572,1.6521E-09,0,0,2.48428E-09,3.1476E-07,0,3.18896E-07,0.005258665,7.34635E-09,0,0,1.98945E-09,7.16953E-06,3.22992E-14,7.17887E-06,0.00306492,1.15353E-07,0,2.69489E-15,2.3155E-07,0.000184832,2.73446E-06,0.000187913
438.426,44.73384,45.0094,44.60102,0.00472484,1.24057E-09,0,0,1.40078E-09,1.77481E-07,0,1.80122E-07,0.001358939,5.51642E-09,0,0,9.72067E-10,4.0428E-06,1.82801E-15,4.04929E-06,0.003439701,8.89048E-08,0,6.22375E-16,1.04484E-07,9.04385E-05,2.86388E-07,9.09182E-05
441.29,44.71281,44.99607,44.60422,0.003601266,9.31554E-10,0,0,7.89846E-10,1.00074E-07,0,1.01796E-07,0.001411144,4.14232E-09,0,0,4.74964E-10,2.27964E-06,1.19883E-16,2.28426E-06,0.001785171,6.85207E-08,0,1.038E-16,4.71471E-08,4.42199E-05,2.99786E-08,4.43656E-05
444.1552,44.70936,44.99981,44.58751,-0.001434756,6.99509E-10,0,0,4.45362E-10,5.6428E-08,0,5.75728E-08,0.005571101,3.11049E-09,0,0,2.32073E-10,1.28542E-06,0,1.28876E-06,-0.001265413,5.28102E-08,0,0,2.12745E-08,2.16137E-05,3.13716E-09,2.16909E-05
447.02,44.71074,45.00278,44.57097,0.002488832,5.25266E-10,0,0,2.51122E-10,3.18175E-08,0,3.25939E-08,0.004208382,2.33569E-09,0,0,1.13394E-10,7.24802E-07,0,7.27251E-07,0.000346615,4.07018E-08,0,0,9.59987E-09,1.05624E-05,3.28243E-10,1.06131E-05
449.885,44.69764,44.99814,44.56502,0.005903172,3.94425E-10,0,0,1.41598E-10,1.79406E-08,0,1.84766E-08,0.003348477,1.75388E-09,0,0,5.54055E-11,4.08689E-07,0,4.10498E-07,0.002452494,3.13697E-08,0,0,4.33181E-09,5.16135E-06,3.43407E-11,5.19709E-06
452.749,44.68384,44.98812,44.55183,0.002850206,2.96177E-10,0,0,7.98414E-11,1.0116E-08,0,1.0492E-08,0.001905675,1.317E-09,0,0,2.70719E-11,2.30444E-07,0,2.31788E-07,0.002973641,2.41772E-08,0,0,1.95468E-09,2.522E-06,3.59257E-12,2.54814E-06
455.614,44.68143,44.981,44.55229,0.0032977,2.22401E-10,0,0,4.50193E-11,5.70401E-09,0,5.97143E-09,0.002165888,9.88944E-10,0,0,1.32276E-11,1.29938E-07,0,1.3094E-07,0.000419293,1.86338E-08,0,0,8.82021E-10,1.2323E-06,3.75814E-13,1.25182E-06
458.479,44.66491,44.98518,44.53784,0.004531092,1.67002E-10,0,0,2.53846E-11,3.21627E-09,0,3.40865E-09,0.00489486,7.42604E-10,0,0,6.46318E-12,7.32672E-08,0,7.40162E-08,-0.000187112,1.43615E-08,0,0,3.98001E-10,6.02124E-07,3.93275E-14,6.16884E-07
461.344,44.66251,44.98184,44.52776,0.002507697,1.25403E-10,0,0,1.43134E-11,1.81352E-09,0,1.95324E-09,0.003119543,5.57626E-10,0,0,3.15798E-12,4.13124E-08,0,4.18732E-08,0.001294285,1.10686E-08,0,0,1.79593E-10,2.94206E-07,4.10332E-15,3.05455E-07
464.208,44.6549,44.9785,44.5206,0.001024577,9.41659E-11,0,0,8.07075E-12,1.02257E-09,0,1.12481E-09,0.002887332,4.18725E-10,0,0,1.54304E-12,2.32945E-08,0,2.37147E-08,0.002291542,8.53082E-09,0,0,8.10389E-11,1.43753E-07,4.26322E-16,1.52365E-07
467.073,44.65279,44.968,44.50879,0.002817372,7.07097E-11,0,0,4.55077E-12,5.76589E-10,0,6.51849E-10,0.001621927,3.14423E-10,0,0,7.53942E-13,1.31348E-08,0,1.345E-08,0.001595072,6.57486E-09,0,0,3.65677E-11,7.02396E-08,5.32904E-17,7.6851E-08
469.9379,44.63419,44.96888,44.50585,0.005567531,5.30963E-11,0,0,2.566E-12,3.25116E-10,0,3.80778E-10,0.000949323,2.36102E-10,0,0,3.6839E-13,7.4062E-09,0,7.64267E-09,0.001311559,5.06737E-09,0,0,1.65007E-11,3.432E-08,0,3.94039E-08
472.803,44.62178,44.96136,44.50105,0.002884126,3.98704E-11,0,0,1.44686E-12,1.8332E-10,0,2.24637E-10,0.002267942,1.77291E-10,0,0,1.80001E-13,4.17606E-09,0,4.35353E-09,0.001711032,3.90552E-09,0,0,7.44573E-12,1.67691E-08,0,2.06821E-08
475.667,44.61489,44.9576,44.49463,0.000917948,2.99389E-11,0,0,8.15827E-13,1.03367E-10,0,1.34121E-10,0.002588279,1.33129E-10,0,0,8.79461E-14,2.35472E-09,0,2.48793E-09,0.001931453,3.01006E-09,0,0,3.35979E-12,8.19362E-09,0,1.1207E-08
478.532,44.61351,44.94717,44.49043,0.003721291,2.24813E-11,0,0,4.60012E-13,5.82843E-11,0,8.12256E-11,0.003713914,9.99671E-11,0,0,4.29732E-14,1.32773E-09,0,1.42774E-09,0.002128131,2.31991E-09,0,0,1.51607E-12,4.0035E-09,0,6.32492E-09
481.397,44.59394,44.94546,44.47706,0.006573751,1.68814E-11,0,0,2.59383E-13,3.28642E-11,0,5.0005E-11,0.003105054,7.5066E-11,0,0,2.0993E-14,7.48654E-10,0,8.23741E-10,0.000594402,1.788E-09,0,0,6.84105E-13,1.95616E-09,0,3.74484E-09
484.262,44.5811,44.94506,44.46906,0.005253686,1.26763E-11,0,0,1.46253E-13,1.85308E-11,0,3.13533E-11,0.00531166,5.63675E-11,0,0,1.02602E-14,4.22136E-10,0,4.78514E-10,0.002038302,1.37804E-09,0,0,3.08694E-13,9.55802E-10,0,2.33415E-09
487.126,44.56627,44.93503,44.44338,0.001162748,9.51877E-12,0,0,8.2464E-14,1.04488E-11,0,2.005E-11,0.004560842,4.23267E-11,0,0,5.01199E-15,2.38026E-10,0,2.80358E-10,0.002312797,1.06209E-09,0,0,1.39295E-13,4.67017E-10,0,1.52924E-09
489.991,44.57007,44.93208,44.44307,0.002043869,7.14763E-12,0,0,4.65028E-14,5.89165E-12,0,1.30858E-11,0.002190873,3.17834E-11,0,0,2.44693E-15,1.34213E-10,0,1.65999E-10,0.001252473,8.18569E-10,0,0,6.28575E-14,2.2819E-10,0,1.04682E-09
492.856,44.55007,44.92751,44.43389,0.004505892,5.3672E-12,0,0,2.6219E-14,3.32208E-12,0,8.7155E-12,0.004245528,2.38663E-11,0,0,1.19815E-15,7.56775E-11,0,9.95451E-11,0.001466919,6.30887E-10,0,0,2.83573E-14,1.11497E-10,0,7.42412E-10
495.721,44.5445,44.92534,44.41907,0.002589117,4.03033E-12,0,0,1.47882E-14,1.87318E-12,0,5.9183E-12,0.005007582,1.79214E-11,0,0,5.82201E-16,4.26715E-11,0,6.05935E-11,0.001517699,4.86236E-10,0,0,1.27987E-14,5.44785E-11,0,5.40728E-10
498.585,44.53659,44.91998,44.40595,0.001298338,3.02635E-12,0,0,8.33333E-15,1.05622E-12,0,4.0909E-12,0.004358258,1.34573E-11,0,0,2.86882E-16,2.40608E-11,0,3.75184E-11,0.000884133,3.74752E-10,0,0,5.77649E-15,2.66189E-11,0,4.01376E-10
500.495,44.53659,44.91998,44.39879,0.000656142,2.50024E-12,0,0,5.68545E-15,7.2089E-13,0,3.22681E-12,0.00477235,2.50024E-12,0,0,5.68545E-15,7.2089E-13,0,3.22681E-12,-0.000271983,2.50024E-12,0,0,5.68545E-15,7.2089E-13,0,3.22681E-12