File: TGA/Gd_TGA.csv
#EXPORTTYPE:                 ;DATA COMPARE                                                   ;DATA COMPARE                                           ;DATA COMPARE
#FILE:                       ;24.05.23_ Gd_2+4_10kmin_30+1000_N2-120.ngb-ds5                 ;12.05.23_ Gd_2+4_3kmin_30+500_N2-120.ngb-ds5           ;12.05.23_ Gd_2+4_5kmin_30+500_N2-120.ngb-ds5
#FORMAT:                     ;NETZSCH5                                                       ;NETZSCH5                                               ;NETZSCH5
#FTYPE:                      ;ANSI                                                           ;ANSI                                                   ;ANSI
#IDENTITY:                   ;Gd_2+4                                                         ;Gd_2+4                                                 ;Gd_2+4
#DECIMAL:                    ;COMMA                                                          ;COMMA                                                  ;COMMA
#SEPARATOR:                  ;SEMICOLON                                                      ;SEMICOLON                                              ;SEMICOLON
#MTYPE:                      ;TG                                                             ;TG                                                     ;TG
#INSTRUMENT:                 ;NETZSCH STA 449F5                                              ;NETZSCH STA 449F5                                      ;NETZSCH STA 449F5
#PROJECT:                    ;                                                               ;                                                       ;
#DATE/TIME:                  ;24.05.2023 16:54:46 (UTC+3)                                    ;12.05.2023 11:55:38 (UTC+3)                            ;26.05.2023 11:21:43 (UTC+3)
#CORR. FILE:                 ;18.03.22_correction for composite-10kmin_40+1000_N2-120.ngb-bs5;11.05.23_correction for composite-3kmin_30-500Ñ.ngb-bs5;10.05.23_correction for composite-5kmin_30-500Ñ.ngb-bs5
#TEMPCAL:                    ;10kmin-N2_washer+Al2O3+cover.ngb-ts5                           ;3kmin-N2_washer+Al2O3+cover.ngb-ts5                    ;5kmin-N2_washer+Al2O3+cover.ngb-ts5
#SENSITIVITY:                ;10kmin-N2_washer+Al2O3+cover.ngb-ts5.ngb-es5                   ;3kmin-N2_washer+Al2O3+cover.ngb-es5                    ;5kmin-N2_washer+Al2O3+cover.ngb-es5
#LABORATORY:                 ;                                                               ;                                                       ;
#OPERATOR:                   ;                                                               ;                                                       ;
#REMARK:                     ;                                                               ;                                                       ;
#SAMPLE:                     ;1                                                              ;1                                                      ;1
#SAMPLE MASS /mg:            ;20,4395                                                        ;24,6870                                                ;19,9405
#MATERIAL:                   ;                                                               ;                                                       ;
#REFERENCE:                  ;                                                               ;                                                       ;
#REFERENCE MASS /mg:         ;0                                                              ;0                                                      ;0
#TYPE OF CRUCIBLE:           ;DSC/TG pan Al2O3                                               ;DSC/TG pan Al2O3                                       ;DSC/TG pan Al2O3
#SAMPLE CRUCIBLE MASS /mg:   ;0                                                              ;0                                                      ;0
#REFERENCE CRUCIBLE MASS /mg:;0                                                              ;0                                                      ;0
#DSC RANGE /µV:              ;5000                                                           ;5000                                                   ;5000
#TG RANGE /mg:               ;35000                                                          ;35000                                                  ;35000
#TAU-R:                      ;---                                                            ;---                                                    ;---
#CORR. CODE:                 ;020                                                            ;020                                                    ;020
#EXO:                        ;+1                                                             ;+1                                                     ;+1
#RANGE:                      ;25°C/10,0(K/min)/1000°C                                        ;30°C/3,0(K/min)/500°C                                  ;30°C/5,0(K/min)/500°C
#SEGMENT:                    ;S1/2                                                           ;S1/1                                                   ;S1/1
#SEG. 1:                     ;25°C/10,0(K/min)/1000°C                                        ;30°C/3,0(K/min)/500°C                                  ;30°C/5,0(K/min)/500°C

##Temp./°C;Mass/%;Mass/%;Mass/%
 24,97800;100,00000;         ;
 25,93292; 99,34367;         ;
 26,88783; 99,33910;100,00000;100,00000
 27,84275; 99,33947;100,00000;100,00000
 28,79766; 99,31947;100,00000;100,00000
 29,75258; 99,31980;100,00000;100,00000
 30,70749; 99,33090;100,00000;100,35255
 31,66241; 99,34855;100,08662;100,28321
 32,61732; 99,34972;100,10937;100,24122
 33,57224; 99,34497;100,12709;100,19546
 34,52715; 99,32632;100,13812;100,16036
 35,48207; 99,32875;100,14447;100,12691
 36,43698; 99,33029;100,15717;100,11034
 37,39190; 99,33220;100,16889;100,11234
 38,34681; 99,32438;100,18814;100,09533
 39,30173; 99,32982;100,19128;100,08510
 40,25664; 99,32239;100,20663;100,07368
 41,21156; 99,32620;100,20821;100,05106
 42,16647; 99,31702;100,21187;100,03460
 43,12139; 99,33169;100,21184;100,02368
 44,07630; 99,32887;100,23454;100,00962
 45,03122; 99,32140;100,23773; 99,99507
 45,98613; 99,32157;100,24669; 99,98924
 46,94105; 99,32191;100,24507; 99,98083
 47,89596; 99,31799;100,25321; 99,96438
 48,85088; 99,32142;100,25682; 99,95236
 49,80579; 99,31691;100,26319; 99,93724
 50,76071; 99,31461;100,27526; 99,91274
 51,71562; 99,31019;100,26934; 99,90463
 52,67054; 99,31418;100,26582; 99,89218
 53,62545; 99,31734;100,27177; 99,87824
 54,58037; 99,32027;100,28922; 99,87112
 55,53528; 99,32092;100,29692; 99,87005
 56,49020; 99,32485;100,29792; 99,86071
 57,44511; 99,32307;100,30389; 99,83842
 58,40003; 99,32339;100,30301; 99,82896
 59,35494; 99,32334;100,31110; 99,81591
 60,30986; 99,31198;100,32045; 99,79777
 61,26477; 99,31198;100,32949; 99,78419
 62,21969; 99,32064;100,33901; 99,77583
 63,17460; 99,32044;100,34188; 99,76730
 64,12952; 99,31938;100,34096; 99,74723
 65,08443; 99,31355;100,34168; 99,73822
 66,03935; 99,30867;100,34108; 99,73121
 66,99426; 99,30882;100,34671; 99,72145
 67,94918; 99,31376;100,35324; 99,70280
 68,90409; 99,30869;100,35808; 99,69108
 69,85901; 99,30178;100,36553; 99,69008
 70,81392; 99,30133;100,37022; 99,68707
 71,76884; 99,30476;100,37186; 99,67176
 72,72375; 99,30468;100,37714; 99,65249
 73,67867; 99,30130;100,38400; 99,64033
 74,63358; 99,29942;100,38971; 99,62940
 75,58850; 99,29842;100,39098; 99,61823
 76,54341; 99,29793;100,39251; 99,60131
 77,49833; 99,29989;100,38840; 99,58727
 78,45324; 99,30400;100,39859; 99,56621
 79,40816; 99,30816;100,39859; 99,55719
 80,36307; 99,30673;100,40750; 99,54264
 81,31799; 99,29833;100,41034; 99,53014
 82,27290; 99,28763;100,40841; 99,52709
 83,22782; 99,29496;100,40508; 99,52709
 84,18273; 99,30526;100,40061; 99,51991
 85,13765; 99,30527;100,40932; 99,49886
 86,09256; 99,30330;100,40628; 99,48045
 87,04748; 99,30227;100,41479; 99,47073
 88,00239; 99,30182;100,42088; 99,46244
 88,95731; 99,30184;100,42885; 99,45034
 89,91222; 99,29940;100,43100; 99,43784
 90,86714; 99,29646;100,43302; 99,43277
 91,82205; 99,29788;100,44207; 99,42222
 92,77697; 99,29646;100,44720; 99,40423
 93,73188; 99,29443;100,44882; 99,40249
 94,68680; 99,29115;100,45733; 99,39018
 95,64171; 99,28814;100,46502; 99,38112
 96,59663; 99,28814;100,47232; 99,37528
 97,55154; 99,28716;100,46947; 99,36059
 98,50646; 99,28717;100,46583; 99,35909
 99,46137; 99,28717;100,47434; 99,35812
100,41629; 99,28126;100,48366; 99,34784
101,37120; 99,28285;100,48609; 99,32030
102,32612; 99,28569;100,48771; 99,30332
103,28103; 99,28570;100,48352; 99,29287
104,23595; 99,28427;100,48609; 99,28078
105,19086; 99,28231;100,49215; 99,27835
106,14578; 99,27635;100,50262; 99,26431
107,10069; 99,27040;100,49581; 99,24875
108,05561; 99,26465;100,49615; 99,24503
109,01052; 99,26368;100,50677; 99,22742
109,96544; 99,26368;100,50796; 99,20108
110,92035; 99,26076;100,50674; 99,17762
111,87527; 99,25537;100,50755; 99,16456
112,83018; 99,25358;100,51157; 99,15937
113,78510; 99,25341;100,51858; 99,14783
114,74001; 99,25581;100,53186; 99,13155
115,69493; 99,25634;100,53145; 99,11726
116,64984; 99,25585;100,53672; 99,10337
117,60476; 99,24900;100,54280; 99,09406
118,55967; 99,24656;100,53978; 99,08340
119,51459; 99,24998;100,54076; 99,06514
120,46950; 99,25193;100,54847; 99,05138
121,42442; 99,24900;100,55247; 99,04516
122,37933; 99,24667;100,55618; 99,02711
123,33425; 99,24607;100,55819; 99,01325
124,28916; 99,24411;100,55518; 99,00209
125,24408; 99,24021;100,56851; 98,99116
126,19899; 99,23625;100,57098; 98,97183
127,15391; 99,23291;100,57464; 98,96406
128,10882; 99,23108;100,57480; 98,95390
129,06374; 99,22835;100,57763; 98,93940
130,01865; 99,22402;100,58087; 98,93084
130,97357; 99,22209;100,58290; 98,91835
131,92848; 99,22063;100,58982; 98,90825
132,88340; 99,21867;100,58836; 98,90444
133,83831; 99,21720;100,58910; 98,88918
134,79323; 99,21378;100,58330; 98,87131
135,74814; 99,21089;100,58087; 98,85566
136,70306; 99,20796;100,57804; 98,84355
137,65797; 99,20543;100,58736; 98,82500
138,61289; 99,20497;100,59505; 98,82097
139,56780; 99,20254;100,58168; 98,80001
140,52272; 99,19528;100,57601; 98,78254
141,47763; 99,18981;100,56467; 98,76734
142,43255; 99,18736;100,56386; 98,75329
143,38746; 99,18785;100,56264; 98,74425
144,34238; 99,18542;100,56104; 98,72923
145,29729; 99,18442;100,55126; 98,71670
146,25221; 99,18293;100,55576; 98,70427
147,20712; 99,18149;100,55495; 98,68657
148,16204; 99,18052;100,53267; 98,67706
149,11695; 99,17906;100,53186; 98,65700
150,07187; 99,17708;100,53004; 98,63929
151,02678; 99,17104;100,52820; 98,61250
151,98170; 99,16582;100,52011; 98,59728
152,93661; 99,16241;100,52094; 98,57487
153,89153; 99,15851;100,50593; 98,55920
154,84644; 99,15115;100,50512; 98,54220
155,80136; 99,14627;100,48932; 98,52589
156,75627; 99,14089;100,47600; 98,50906
157,71119; 99,13012;100,46092; 98,48999
158,66610; 99,12418;100,44315; 98,46975
159,62102; 99,11499;100,43098; 98,43479
160,57593; 99,11006;100,40399; 98,42140
161,53085; 99,10571;100,37606; 98,39374
162,48576; 99,10027;100,34549; 98,37326
163,44068; 99,09333;100,31617; 98,35367
164,39559; 99,08264;100,27869; 98,33258
165,35051; 99,06832;100,23215; 98,30079
166,30542; 99,05869;100,19448; 98,27888
167,26034; 99,05476;100,15149; 98,25418
168,21525; 99,04848;100,10689; 98,22089
169,17017; 99,04211;100,07092; 98,18581
170,12508; 99,02635;100,01840; 98,14832
171,08000; 99,01166; 99,97775; 98,11031
172,03491; 98,99592; 99,91937; 98,06903
172,98983; 98,98248; 99,86898; 98,02614
173,94474; 98,96626; 99,81103; 97,97759
174,89966; 98,95741; 99,75052; 97,93641
175,85457; 98,94327; 99,69218; 97,89588
176,80949; 98,93124; 99,61994; 97,84897
177,76440; 98,91102; 99,54210; 97,79395
178,71932; 98,88783; 99,46828; 97,73666
179,67423; 98,86079; 99,38678; 97,67516
180,62915; 98,83541; 99,29718; 97,63178
181,58406; 98,80604; 99,21334; 97,56627
182,53898; 98,77802; 99,11677; 97,50414
183,49389; 98,75828; 99,02536; 97,45380
184,44881; 98,72355; 98,92785; 97,38884
185,40372; 98,68974; 98,80404; 97,32085
186,35864; 98,64685; 98,71311; 97,24668
187,31355; 98,59961; 98,58081; 97,18663
188,26847; 98,55504; 98,44935; 97,11601
189,22338; 98,51633; 98,30549; 97,04725
190,17830; 98,48101; 98,16497; 96,96696
191,13321; 98,44590; 98,02417; 96,89175
192,08813; 98,40901; 97,90281; 96,81155
193,04304; 98,36371; 97,74574; 96,71777
193,99796; 98,31873; 97,60696; 96,62590
194,95287; 98,27141; 97,45676; 96,54072
195,90779; 98,22721; 97,29785; 96,46128
196,86270; 98,18023; 97,13396; 96,35225
197,81762; 98,13253; 96,96610; 96,25533
198,77253; 98,08239; 96,78705; 96,13902
199,72745; 98,02384; 96,61098; 96,03063
200,68236; 97,96592; 96,41119; 95,91051
201,63728; 97,89768; 96,06496; 95,81559
202,59219; 97,82098; 96,01717; 95,69718
203,54711; 97,74460; 95,78993; 95,58087
204,50202; 97,66539; 95,60719; 95,43303
205,45694; 97,58758; 95,33777; 95,30686
206,41185; 97,50057; 95,11895; 95,18135
207,36677; 97,43263; 94,88038; 95,02021
208,32168; 97,33520; 94,63622; 94,86225
209,27660; 97,24972; 94,38647; 94,72446
210,23151; 97,16610; 94,11869; 94,54499
211,18643; 97,06528; 93,82299; 94,36687
212,14134; 96,96484; 93,57593; 94,18553
213,09626; 96,86401; 93,28634; 94,00346
214,05117; 96,75653; 93,01246; 93,83572
215,00609; 96,63729; 92,73028; 93,63254
215,96100; 96,47770; 92,42727; 93,42468
216,91592; 96,33590; 92,11549; 93,22437
217,87083; 96,19749; 91,76106; 93,00970
218,82575; 96,06872; 91,41773; 92,78606
219,78066; 95,91192; 91,02990; 92,55896
220,73558; 95,73819; 90,66106; 92,31159
221,69049; 95,58387; 90,29994; 92,04448
222,64541; 95,43639; 89,92546; 91,80165
223,60032; 95,26265; 89,51469; 91,47158
224,55524; 95,06658; 89,13398; 91,21576
225,51015; 94,88428; 88,79255; 90,96722
226,46507; 94,70265; 88,38405; 90,65545
227,41998; 94,50520; 87,99488; 90,37333
228,37490; 94,35047; 87,60125; 90,08462
229,32981; 94,12341; 87,19810; 89,76212
230,28473; 93,91051; 86,80972; 89,49123
231,23964; 93,69018; 86,40838; 89,14403
232,19456; 93,45494; 86,00540; 88,85469
233,14947; 93,22161; 85,60930; 88,52617
234,10439; 92,99893; 85,20527; 88,24003
235,05930; 92,75619; 84,84336; 87,89414
236,01422; 92,51565; 84,46944; 87,58402
236,96913; 92,27800; 84,06438; 87,26552
237,92405; 92,04036; 83,66785; 86,94049
238,87896; 91,79206; 83,28100; 86,63322
239,83388; 91,53594; 82,88069; 86,34383
240,78879; 91,28688; 82,47408; 85,98873
241,74371; 91,03493; 82,08550; 85,67787
242,69862; 90,77510; 81,68738; 85,35839
243,65354; 90,51320; 81,51724; 85,07028
244,60845; 90,25417; 80,90722; 84,77635
245,56337; 89,98808; 80,51201; 84,47962
246,51828; 89,72885; 80,11488; 84,20305
247,47320; 89,47250; 79,79166; 83,95632
248,42811; 89,23004; 79,41555; 83,68391
249,38303; 88,98749; 79,05881; 83,40566
250,33794; 88,72603; 78,73295; 83,12982
251,29286; 88,47988; 78,40976; 82,89019
252,24777; 88,25351; 78,11057; 82,61566
253,20269; 88,00765; 77,83501; 82,38520
254,15760; 87,75679; 77,58520; 82,08562
255,11252; 87,51524; 77,32086; 81,85105
256,06743; 87,27387; 77,05647; 81,54148
257,02235; 87,03779; 76,78288; 81,26456
257,97726; 86,78563; 76,47914; 80,97701
258,93218; 86,54932; 76,24280; 80,69517
259,88709; 86,30878; 75,98833; 80,42914
260,84201; 86,07661; 75,70017; 80,10756
261,79692; 85,87705; 75,41073; 79,81500
262,75184; 85,63407; 75,13618; 79,48604
263,70675; 85,39684; 74,85135; 79,17915
264,66167; 85,16033; 74,56527; 78,83390
265,61658; 84,93526; 74,29193; 78,52956
266,57150; 84,70877; 74,00821; 78,08969
267,52641; 84,48091; 73,72574; 77,83014
268,48133; 84,23297; 73,43939; 77,52040
269,43624; 83,98767; 73,15955; 77,16130
270,39116; 83,75605; 72,86569; 76,84089
271,34607; 83,49891; 72,57431; 76,50789
272,30099; 83,25066; 72,26857; 76,22651
273,25590; 82,99352; 71,97277; 76,03533
274,21082; 82,73423; 71,66994; 75,71941
275,16573; 82,46856; 71,35669; 75,51829
276,12065; 82,20085; 71,03724; 75,42183
277,07556; 81,92850; 70,72493; 75,34634
278,03048; 81,65429; 70,41642; 75,28289
278,98539; 81,36773; 70,08318; 75,22419
279,94031; 81,08912; 69,75975; 75,15384
280,89522; 80,77660; 69,43440; 75,05452
281,85014; 80,47908; 69,10325; 74,92648
282,80505; 80,17481; 68,79557; 74,77578
283,75997; 79,88067; 68,46456; 74,62146
284,71488; 79,56765; 68,22684; 74,47321
285,66980; 79,26472; 67,95913; 74,30186
286,62471; 78,93298; 67,67137; 74,12930
287,57963; 78,61979; 67,40047; 73,94244
288,53454; 78,30064; 67,11083; 73,75739
289,48946; 77,96721; 66,81813; 73,56731
290,44437; 77,65243; 66,51038; 73,36742
291,39929; 77,32997; 66,22695; 73,16036
292,35420; 77,03276; 65,91836; 72,96749
293,30912; 76,71731; 65,61645; 72,73690
294,26403; 76,40777; 65,30182; 72,51969
295,21895; 76,12320; 64,98866; 72,29309
296,17386; 75,85411; 64,68504; 72,04934
297,12878; 75,59628; 64,34252; 71,80366
298,08369; 75,35028; 64,03119; 71,51361
299,03861; 75,13993; 63,69387; 71,28951
299,99352; 74,96271; 63,34318; 71,02514
300,94844; 74,84222; 62,97571; 70,76774
301,90335; 74,74838; 62,65180; 70,50224
302,85827; 74,68918; 62,29124; 70,23764
303,81318; 74,61043; 61,90909; 69,92917
304,76810; 74,51783; 61,52481; 69,67914
305,72301; 74,43035; 61,17396; 69,32474
306,67793; 74,34526; 60,79450; 69,06747
307,63284; 74,24335; 60,40421; 68,74490
308,58776; 74,13844; 60,00790; 68,46846
309,54267; 74,02551; 59,59312; 68,15909
310,49759; 73,90860; 59,17797; 67,84459
311,45250; 73,79358; 58,76398; 67,57581
312,40742; 73,62849; 58,32088; 67,28877
313,36233; 73,47271; 57,91179; 67,05365
314,31725; 73,33251; 57,47677; 66,84001
315,27216; 73,15100; 57,01214; 66,65176
316,22708; 72,99240; 56,58887; 66,48255
317,18199; 72,81776; 56,16318; 66,29626
318,13691; 72,64862; 55,71648; 66,07445
319,09182; 72,47939; 55,30578; 65,83080
320,04674; 72,28674; 54,93571; 65,59716
321,00165; 72,10910; 54,62925; 65,36410
321,95657; 71,90486; 54,41689; 65,08329
322,91148; 71,73662; 54,36093; 64,82379
323,86640; 71,50926; 54,33939; 64,56450
324,82131; 71,29801; 54,32250; 64,28729
325,77623; 71,08110; 54,28120; 64,03493
326,73114; 70,86660; 54,24959; 63,69937
327,68606; 70,62703; 54,21314; 63,45823
328,64097; 70,39995; 54,18237; 63,16947
329,59589; 70,16119; 54,12891; 62,88415
330,55080; 69,91560; 54,08631; 62,61903
331,50572; 69,67551; 54,03648; 62,32227
332,46063; 69,41202; 53,98868; 62,07208
333,41555; 69,17479; 53,92638; 61,78560
334,37046; 68,90241; 53,86826; 61,47100
335,32538; 68,63092; 53,80784; 61,16395
336,28029; 68,37281; 53,73851; 60,84047
337,23521; 68,09668; 53,67158; 60,51213
338,19012; 67,83689; 53,60392; 60,17528
339,14504; 67,57470; 53,53695; 59,82030
340,09995; 67,29656; 53,47228; 59,47550
341,05487; 67,06588; 53,39201; 59,10174
342,00978; 66,83697; 53,33435; 58,71386
342,96470; 66,62486; 53,25714; 58,32009
343,91961; 66,39695; 53,18582; 57,93161
344,87453; 66,17068; 53,08702; 57,52521
345,82944; 65,93085; 53,01724; 57,13451
346,78436; 65,69564; 52,93203; 56,70944
347,73927; 65,43920; 52,85265; 56,28432
348,69419; 65,18025; 52,76836; 55,85885
349,64910; 64,90784; 52,68703; 55,44184
350,60402; 64,62599; 52,61477; 54,97851
351,55893; 64,32486; 52,53511; 54,52704
352,51385; 64,01147; 52,46203; 54,09290
353,46876; 63,69118; 52,36452; 53,68222
354,42368; 63,35831; 52,28922; 53,30110
355,37859; 63,03797; 52,20723; 52,97548
356,33351; 62,69779; 52,12659; 52,72636
357,28842; 62,33759; 52,03898; 52,62005
358,24334; 61,99388; 51,95756; 52,57541
359,19825; 61,63431; 51,87140; 52,52397
360,15317; 61,26419; 51,79650; 52,45825
361,10808; 60,88116; 51,71090; 52,37026
362,06300; 60,50508; 51,62109; 52,26626
363,01791; 60,14811; 51,52752; 52,14471
363,97283; 59,73297; 51,44522; 52,01028
364,92774; 59,31583; 51,33829; 51,88157
365,88266; 58,91854; 51,24310; 51,75299
366,83757; 58,49071; 51,13331; 51,59846
367,79249; 58,08854; 51,02413; 51,45000
368,74740; 57,67479; 50,92876; 51,31029
369,70232; 57,26515; 50,80594; 51,15343
370,65723; 56,82664; 50,69383; 50,98590
371,61215; 56,43080; 50,57743; 50,82340
372,56706; 56,02126; 50,45663; 50,69504
373,52198; 55,61036; 50,33580; 50,52131
374,47689; 55,22051; 50,21512; 50,35040
375,43181; 54,82678; 50,10256; 50,19382
376,38672; 54,43507; 49,96525; 50,02931
377,34164; 54,06702; 49,84473; 49,85479
378,29655; 53,71298; 49,72120; 49,68145
379,25147; 53,37476; 49,60790; 49,49707
380,20638; 53,09252; 49,49505; 49,29891
381,16130; 52,82521; 49,41102; 49,08457
382,11621; 52,62373; 49,34743; 48,89332
383,07113; 52,48389; 49,32728; 48,70115
384,02604; 52,43639; 49,31528; 48,49940
384,98096; 52,38974; 49,31057; 48,29973
385,93587; 52,34937; 49,30976; 48,08490
386,89079; 52,30957; 49,30934; 47,85345
387,84570; 52,26853; 49,30525; 47,63841
388,80062; 52,20671; 49,30166; 47,42604
389,75553; 52,14728; 49,29279; 47,20464
390,71045; 52,08958; 49,29100; 46,99257
391,66536; 52,02449; 49,28749; 46,78563
392,62028; 51,95661; 49,28384; 46,57238
393,57519; 51,86473; 49,27978; 46,35598
394,53011; 51,78971; 49,27857; 46,15457
395,48502; 51,69736; 49,27695; 45,96023
396,43994; 51,60265; 49,26746; 45,76203
397,39485; 51,51011; 49,26236; 45,58882
398,34977; 51,41175; 49,26196; 45,45008
399,30468; 51,30009; 49,25588; 45,29636
400,25960; 51,19973; 49,25386; 45,12950
401,21451; 51,08544; 49,25102; 44,95712
402,16943; 50,95980; 49,24746; 44,79887
403,12434; 50,78240; 49,24616; 44,62963
404,07926; 50,64999; 49,24535; 44,45674
405,03417; 50,53414; 49,24171; 44,27659
405,98909; 50,40989; 49,23899; 44,09487
406,94400; 50,23786; 49,23611; 43,92917
407,89892; 50,06104; 49,23117; 43,74318
408,85383; 49,90945; 49,24373; 43,55464
409,80875; 49,74584; 49,23644; 43,38516
410,76366; 49,61534; 49,23360; 43,21026
411,71858; 49,43638; 49,22989; 43,04199
412,67349; 49,24054; 49,22348; 42,89692
413,62841; 49,05758; 49,21983; 42,77487
414,58332; 48,87876; 49,21908; 42,73162
415,53824; 48,69366; 49,21700; 42,71795
416,49315; 48,50601; 49,20991; 42,69457
417,44807; 48,29900; 49,20403; 42,66714
418,40298; 48,12439; 49,19198; 42,64842
419,35790; 47,92241; 49,18339; 42,63134
420,31281; 47,73020; 49,19148; 42,61140
421,26773; 47,51679; 49,18945; 42,58972
422,22264; 47,30491; 49,18378; 42,57849
423,17756; 47,09134; 49,18176; 42,54980
424,13247; 46,87885; 49,17925; 42,53264
425,08739; 46,66205; 49,17325; 42,51050
426,04230; 46,45025; 49,17325; 42,49346
426,99722; 46,24521; 49,17327; 42,48642
427,95213; 46,03758; 49,16762; 42,45605
428,90705; 45,82043; 49,16515; 42,44429
429,86196; 45,60283; 49,16474; 42,42624
430,81688; 45,39211; 49,16393; 42,39229
431,77179; 45,17582; 49,15178; 42,36557
432,72671; 44,97591; 49,14732; 42,35053
433,68162; 44,77974; 49,14692; 42,32837
434,63654; 44,61629; 49,15421; 42,30635
435,59145; 44,53043; 49,14865; 42,29383
436,54637; 44,49523; 49,14003; 42,26970
437,50128; 44,48293; 49,13489; 42,24446
438,45620; 44,47123; 49,12910; 42,21964
439,41111; 44,46441; 49,12748; 42,20166
440,36603; 44,44973; 49,12394; 42,17945
441,32094; 44,43700; 49,11532; 42,15541
442,27586; 44,42662; 49,11659; 42,13428
443,23077; 44,41743; 49,11445; 42,11598
444,18569; 44,41003; 49,12140; 42,09276
445,14060; 44,39929; 49,12343; 42,06233
446,09552; 44,39247; 49,11931; 42,04358
447,05043; 44,38025; 49,11897; 42,01357
448,00535; 44,36899; 49,11775; 41,99903
448,96026; 44,36208; 49,11087; 41,97587
449,91518; 44,35081; 49,10074; 41,95223
450,87009; 44,34061; 49,09588; 41,92975
451,82501; 44,32673; 49,08251; 41,91164
452,77992; 44,31365; 49,08211; 41,89214
453,73484; 44,30057; 49,07969; 41,86960
454,68975; 44,28826; 49,07201; 41,84692
455,64467; 44,27989; 49,06843; 41,81640
456,59958; 44,27115; 49,06388; 41,78602
457,55450; 44,26977; 49,06388; 41,75673
458,50941; 44,26380; 49,06258; 41,72851
459,46433; 44,25938; 49,05578; 41,69990
460,41924; 44,24391; 49,05376; 41,68948
461,37416; 44,23445; 49,05173; 41,66249
462,32907; 44,22513; 49,05133; 41,63921
463,28399; 44,21586; 49,04642; 41,62132
464,23890; 44,20807; 49,04363; 41,59374
465,19382; 44,19773; 49,04363; 41,56900
466,14873; 44,18387; 49,04746; 41,54263
467,10365; 44,17264; 49,03554; 41,52586
468,05856; 44,16105; 49,02783; 41,49780
469,01348; 44,14832; 49,02742; 41,47089
469,96839; 44,13858; 49,02216; 41,44412
470,92331; 44,12907; 49,01244; 41,42802
471,87822; 44,11650; 49,00920; 41,40278
472,83314; 44,09762; 49,00920; 41,37843
473,78805; 44,09926; 49,00839; 41,35194
474,74297; 44,09108; 49,00660; 41,32442
475,69788; 44,09425; 49,00472; 41,29059
476,65280; 44,07667; 49,00880; 41,25682
477,60771; 44,05831; 49,00798; 41,22712
478,56263; 44,05056; 48,99946; 41,21070
479,51754; 44,04027; 48,98854; 41,18214
480,47246; 44,02465; 48,98651; 41,15470
481,42737; 44,01288; 48,97498; 41,13111
482,38229; 44,00244; 48,96827; 41,11130
483,33720; 43,98589; 48,96666; 41,08311
484,29212; 43,97275; 48,96706; 41,05227
485,24703; 43,96087; 48,95208; 41,03052
486,20195; 43,94882; 48,94560; 40,99926
487,15686; 43,93314; 48,94438; 40,96335
488,11178; 43,92221; 48,95003; 40,92504
489,06669; 43,90645; 48,95046; 40,90035
490,02161; 43,88757; 48,95167; 40,87967
490,97652; 43,87856; 48,92891; 40,84883
491,93144; 43,86298; 48,92535; 40,82617
492,88635; 43,85780; 48,92980; 40,79911
493,84127; 43,85431; 48,92170; 40,76580
494,79618; 43,85040; 48,92130; 40,75228
495,75110; 43,83246; 48,92536; 40,72566
496,70601; 43,82007; 48,92818; 40,69978
497,66093; 43,80339; 48,91244; 40,67300
498,61584; 43,78825; 48,90509; 40,67300
499,57076; 43,78087; 48,90509; 40,67300
500,52567; 43,77064; 48,90509; 40,67300
501,48059; 43,75398; 48,90509; 40,67300
502,43550; 43,74267; 48,90509;
503,39042; 43,73199;         ;
504,34533; 43,71831;         ;
505,30025; 43,70347;         ;
506,25516; 43,69091;         ;
507,21008; 43,67700;         ;
508,16499; 43,66067;         ;
509,11991; 43,64989;         ;
510,07482; 43,62993;         ;
511,02974; 43,61739;         ;
511,98465; 43,60573;         ;
512,93957; 43,59543;         ;
513,89448; 43,57544;         ;
514,84940; 43,56857;         ;
515,80431; 43,55882;         ;
516,75923; 43,54559;         ;
517,71414; 43,53629;         ;
518,66906; 43,52264;         ;
519,62397; 43,50985;         ;
520,57889; 43,48684;         ;
521,53380; 43,47174;         ;
522,48872; 43,45845;         ;
523,44363; 43,44486;         ;
524,39855; 43,42595;         ;
525,35346; 43,41252;         ;
526,30838; 43,39345;         ;
527,26329; 43,37826;         ;
528,21821; 43,36165;         ;
529,17312; 43,34646;         ;
530,12804; 43,32985;         ;
531,08295; 43,31463;         ;
532,03787; 43,30192;         ;
532,99278; 43,29218;         ;
533,94770; 43,27066;         ;
534,90261; 43,24681;         ;
535,85753; 43,23393;         ;
536,81244; 43,22368;         ;
537,76736; 43,20465;         ;
538,72227; 43,18017;         ;
539,67719; 43,16298;         ;
540,63210; 43,14049;         ;
541,58702; 43,11890;         ;
542,54193; 43,10205;         ;
543,49685; 43,08178;         ;
544,45176; 43,05987;         ;
545,40668; 43,04557;         ;
546,36159; 43,03085;         ;
547,31651; 43,01964;         ;
548,27142; 43,00894;         ;
549,22634; 42,99608;         ;
550,18125; 42,99072;         ;
551,13617; 42,98539;         ;
552,09108; 42,97463;         ;
553,04600; 42,96141;         ;
554,00091; 42,93989;         ;
554,95583; 42,91930;         ;
555,91074; 42,89770;         ;
556,86566; 42,87086;         ;
557,82057; 42,85627;         ;
558,77549; 42,83764;         ;
559,73040; 42,81832;         ;
560,68532; 42,80072;         ;
561,64023; 42,78429;         ;
562,59515; 42,77121;         ;
563,55006; 42,75396;         ;
564,50498; 42,73207;         ;
565,45989; 42,70644;         ;
566,41481; 42,69286;         ;
567,36972; 42,68133;         ;
568,32464; 42,66984;         ;
569,27955; 42,65730;         ;
570,23447; 42,64820;         ;
571,18938; 42,63423;         ;
572,14430; 42,62193;         ;
573,09921; 42,60271;         ;
574,05413; 42,58612;         ;
575,00904; 42,56530;         ;
575,96396; 42,53328;         ;
576,91887; 42,52008;         ;
577,87379; 42,50169;         ;
578,82870; 42,48571;         ;
579,78362; 42,46972;         ;
580,73853; 42,46438;         ;
581,69345; 42,44822;         ;
582,64836; 42,43021;         ;
583,60328; 42,41884;         ;
584,55819; 42,40508;         ;
585,51311; 42,38972;         ;
586,46802; 42,36669;         ;
587,42294; 42,35293;         ;
588,37785; 42,34252;         ;
589,33277; 42,32637;         ;
590,28768; 42,31075;         ;
591,24260; 42,29366;         ;
592,19751; 42,28138;         ;
593,15243; 42,26911;         ;
594,10734; 42,24953;         ;
595,06226; 42,22792;         ;
596,01717; 42,21363;         ;
596,97209; 42,19937;         ;
597,92700; 42,19084;         ;
598,88192; 42,17851;         ;
599,83683; 42,16038;         ;
600,79175; 42,14227;         ;
601,74666; 42,12490;         ;
602,70158; 42,10670;         ;
603,65649; 42,08666;         ;
604,61141; 42,07975;         ;
605,56632; 42,06365;         ;
606,52124; 42,04994;         ;
607,47615; 42,04413;         ;
608,43107; 42,02698;         ;
609,38598; 42,01379;         ;
610,34090; 42,00402;         ;
611,29581; 41,99064;         ;
612,25073; 41,97704;         ;
613,20564; 41,96327;         ;
614,16056; 41,94427;         ;
615,11547; 41,93151;         ;
616,07039; 41,91968;         ;
617,02530; 41,90775;         ;
617,98022; 41,89360;         ;
618,93513; 41,87809;         ;
619,89005; 41,85763;         ;
620,84496; 41,83864;         ;
621,79988; 41,83370;         ;
622,75479; 41,82098;         ;
623,70971; 41,80138;         ;
624,66462; 41,78862;         ;
625,61954; 41,77297;         ;
626,57445; 41,75927;         ;
627,52937; 41,74511;         ;
628,48428; 41,74075;         ;
629,43920; 41,72513;         ;
630,39411; 41,70865;         ;
631,34903; 41,69186;         ;
632,30394; 41,67088;         ;
633,25886; 41,65379;         ;
634,21377; 41,64333;         ;
635,16869; 41,62700;         ;
636,12360; 41,60967;         ;
637,07852; 41,58909;         ;
638,03343; 41,57228;         ;
638,98835; 41,55627;         ;
639,94326; 41,55176;         ;
640,89818; 41,53350;         ;
641,85309; 41,52009;         ;
642,80801; 41,50886;         ;
643,76292; 41,49492;         ;
644,71784; 41,47951;         ;
645,67275; 41,46074;         ;
646,62767; 41,44778;         ;
647,58258; 41,43403;         ;
648,53750; 41,41981;         ;
649,49241; 41,40161;         ;
650,44733; 41,38326;         ;
651,40224; 41,36772;         ;
652,35716; 41,35366;         ;
653,31207; 41,33418;         ;
654,26699; 41,31803;         ;
655,22190; 41,29989;         ;
656,17682; 41,28036;         ;
657,13173; 41,26469;         ;
658,08665; 41,24690;         ;
659,04156; 41,23288;         ;
659,99648; 41,22558;         ;
660,95139; 41,20745;         ;
661,90631; 41,19361;         ;
662,86122; 41,17562;         ;
663,81614; 41,16527;         ;
664,77105; 41,15474;         ;
665,72597; 41,14532;         ;
666,68088; 41,12772;         ;
667,63580; 41,11139;         ;
668,59071; 41,09926;         ;
669,54563; 41,08120;         ;
670,50054; 41,07094;         ;
671,45546; 41,05925;         ;
672,41037; 41,03843;         ;
673,36529; 41,01891;         ;
674,32020; 41,00698;         ;
675,27512; 40,98735;         ;
676,23003; 40,97795;         ;
677,18495; 40,97060;         ;
678,13986; 40,95802;         ;
679,09478; 40,94229;         ;
680,04969; 40,93325;         ;
681,00461; 40,91738;         ;
681,95952; 40,90069;         ;
682,91444; 40,88466;         ;
683,86935; 40,86742;         ;
684,82427; 40,84813;         ;
685,77918; 40,83604;         ;
686,73410; 40,81862;         ;
687,68901; 40,80628;         ;
688,64393; 40,78843;         ;
689,59884; 40,77492;         ;
690,55376; 40,75982;         ;
691,50867; 40,74481;         ;
692,46359; 40,72918;         ;
693,41850; 40,72211;         ;
694,37342; 40,71824;         ;
695,32833; 40,69471;         ;
696,28325; 40,68246;         ;
697,23816; 40,67093;         ;
698,19308; 40,66048;         ;
699,14799; 40,64484;         ;
700,10291; 40,62569;         ;
701,05782; 40,61034;         ;
702,01274; 40,59497;         ;
702,96765; 40,58075;         ;
703,92257; 40,56987;         ;
704,87748; 40,55384;         ;
705,83240; 40,53864;         ;
706,78731; 40,52336;         ;
707,74223; 40,50182;         ;
708,69714; 40,48883;         ;
709,65206; 40,47608;         ;
710,60697; 40,45641;         ;
711,56189; 40,43919;         ;
712,51680; 40,42027;         ;
713,47172; 40,40707;         ;
714,42663; 40,40021;         ;
715,38155; 40,39369;         ;
716,33646; 40,38165;         ;
717,29138; 40,36235;         ;
718,24629; 40,34438;         ;
719,20121; 40,33249;         ;
720,15612; 40,32250;         ;
721,11104; 40,30283;         ;
722,06595; 40,29210;         ;
723,02087; 40,28333;         ;
723,97578; 40,26421;         ;
724,93070; 40,25003;         ;
725,88561; 40,23581;         ;
726,84053; 40,21870;         ;
727,79544; 40,20021;         ;
728,75036; 40,18152;         ;
729,70527; 40,16536;         ;
730,66019; 40,15309;         ;
731,61510; 40,14334;         ;
732,57002; 40,13789;         ;
733,52493; 40,11791;         ;
734,47985; 40,10117;         ;
735,43476; 40,08452;         ;
736,38968; 40,07679;         ;
737,34459; 40,06458;         ;
738,29951; 40,05326;         ;
739,25442; 40,04057;         ;
740,20934; 40,02251;         ;
741,16425; 40,00237;         ;
742,11917; 39,98848;         ;
743,07408; 39,97688;         ;
744,02900; 39,96233;         ;
744,98391; 39,95394;         ;
745,93883; 39,93853;         ;
746,89374; 39,92268;         ;
747,84866; 39,90585;         ;
748,80357; 39,89142;         ;
749,75849; 39,88594;         ;
750,71340; 39,88159;         ;
751,66832; 39,87768;         ;
752,62323; 39,86622;         ;
753,57815; 39,85799;         ;
754,53306; 39,84099;         ;
755,48798; 39,82586;         ;
756,44289; 39,80826;         ;
757,39781; 39,78767;         ;
758,35272; 39,77443;         ;
759,30764; 39,75732;         ;
760,26255; 39,74511;         ;
761,21747; 39,73062;         ;
762,17238; 39,71112;         ;
763,12730; 39,69992;         ;
764,08221; 39,68296;         ;
765,03713; 39,67122;         ;
765,99204; 39,66046;         ;
766,94696; 39,64821;         ;
767,90187; 39,63012;         ;
768,85679; 39,62082;         ;
769,81170; 39,61741;         ;
770,76662; 39,59895;         ;
771,72153; 39,58359;         ;
772,67645; 39,56329;         ;
773,63136; 39,54309;         ;
774,58628; 39,52967;         ;
775,54119; 39,51620;         ;
776,49611; 39,50199;         ;
777,45102; 39,48630;         ;
778,40594; 39,47308;         ;
779,36085; 39,45437;         ;
780,31577; 39,44128;         ;
781,27068; 39,43099;         ;
782,22560; 39,41355;         ;
783,18051; 39,40019;         ;
784,13543; 39,38800;         ;
785,09034; 39,37035;         ;
786,04526; 39,35469;         ;
787,00017; 39,33770;         ;
787,95509; 39,33264;         ;
788,91000; 39,32739;         ;
789,86492; 39,31265;         ;
790,81983; 39,30528;         ;
791,77475; 39,29297;         ;
792,72966; 39,28611;         ;
793,68458; 39,27536;         ;
794,63949; 39,25562;         ;
795,59441; 39,24203;         ;
796,54932; 39,22851;         ;
797,50424; 39,21296;         ;
798,45915; 39,19121;         ;
799,41407; 39,18012;         ;
800,36898; 39,16338;         ;
801,32390; 39,14612;         ;
802,27881; 39,12966;         ;
803,23373; 39,11200;         ;
804,18864; 39,10092;         ;
805,14356; 39,08854;         ;
806,09847; 39,06677;         ;
807,05339; 39,04741;         ;
808,00830; 39,03486;         ;
808,96322; 39,01939;         ;
809,91813; 39,01117;         ;
810,87305; 38,99596;         ;
811,82796; 38,98921;         ;
812,78288; 38,97603;         ;
813,73779; 38,96083;         ;
814,69271; 38,94177;         ;
815,64762; 38,93433;         ;
816,60254; 38,92707;         ;
817,55745; 38,91382;         ;
818,51237; 38,90216;         ;
819,46728; 38,88487;         ;
820,42220; 38,86681;         ;
821,37711; 38,85320;         ;
822,33203; 38,83603;         ;
823,28694; 38,83236;         ;
824,24186; 38,81810;         ;
825,19677; 38,79892;         ;
826,15169; 38,78848;         ;
827,10660; 38,77633;         ;
828,06152; 38,75487;         ;
829,01643; 38,73698;         ;
829,97135; 38,72009;         ;
830,92626; 38,69757;         ;
831,88118; 38,68870;         ;
832,83609; 38,67559;         ;
833,79101; 38,66093;         ;
834,74592; 38,64800;         ;
835,70084; 38,63089;         ;
836,65575; 38,61690;         ;
837,61067; 38,60305;         ;
838,56558; 38,58070;         ;
839,52050; 38,56451;         ;
840,47541; 38,55423;         ;
841,43033; 38,53852;         ;
842,38524; 38,52525;         ;
843,34016; 38,50507;         ;
844,29507; 38,49379;         ;
845,24999; 38,48313;         ;
846,20490; 38,46573;         ;
847,15982; 38,45254;         ;
848,11473; 38,43685;         ;
849,06965; 38,41922;         ;
850,02456; 38,40983;         ;
850,97948; 38,39282;         ;
851,93439; 38,37902;         ;
852,88931; 38,36150;         ;
853,84422; 38,34470;         ;
854,79914; 38,32911;         ;
855,75405; 38,31354;         ;
856,70897; 38,30542;         ;
857,66388; 38,29164;         ;
858,61880; 38,27770;         ;
859,57371; 38,26609;         ;
860,52863; 38,24805;         ;
861,48354; 38,23234;         ;
862,43846; 38,22415;         ;
863,39337; 38,21203;         ;
864,34829; 38,20690;         ;
865,30320; 38,19899;         ;
866,25812; 38,18113;         ;
867,21303; 38,16785;         ;
868,16795; 38,14575;         ;
869,12286; 38,13698;         ;
870,07778; 38,13061;         ;
871,03269; 38,11847;         ;
871,98761; 38,10363;         ;
872,94252; 38,08891;         ;
873,89744; 38,07652;         ;
874,85235; 38,06602;         ;
875,80727; 38,05290;         ;
876,76218; 38,04106;         ;
877,71710; 38,02886;         ;
878,67201; 38,01501;         ;
879,62693; 37,99792;         ;
880,58184; 37,97610;         ;
881,53676; 37,96818;         ;
882,49167; 37,95766;         ;
883,44659; 37,94128;         ;
884,40150; 37,93346;         ;
885,35642; 37,92305;         ;
886,31133; 37,90896;         ;
887,26625; 37,89880;         ;
888,22116; 37,88599;         ;
889,17608; 37,87528;         ;
890,13099; 37,86071;         ;
891,08591; 37,84206;         ;
892,04082; 37,82969;         ;
892,99574; 37,81885;         ;
893,95065; 37,80673;         ;
894,90557; 37,79540;         ;
895,86048; 37,78224;         ;
896,81540; 37,76027;         ;
897,77031; 37,74503;         ;
898,72523; 37,72948;         ;
899,68014; 37,72747;         ;
900,63506; 37,71810;         ;
901,58997; 37,70640;         ;
902,54489; 37,68566;         ;
903,49980; 37,66904;         ;
904,45472; 37,66531;         ;
905,40963; 37,65552;         ;
906,36455; 37,65451;         ;
907,31946; 37,64611;         ;
908,27438; 37,64525;         ;
909,22929; 37,62861;         ;
910,18421; 37,61106;         ;
911,13912; 37,59900;         ;
912,09404; 37,59292;         ;
913,04895; 37,58164;         ;
914,00387; 37,57433;         ;
914,95878; 37,55674;         ;
915,91370; 37,54347;         ;
916,86861; 37,52790;         ;
917,82353; 37,51402;         ;
918,77844; 37,49603;         ;
919,73336; 37,47848;         ;
920,68827; 37,46833;         ;
921,64319; 37,45450;         ;
922,59810; 37,44069;         ;
923,55302; 37,43926;         ;
924,50793; 37,41894;         ;
925,46285; 37,40609;         ;
926,41776; 37,39348;         ;
927,37268; 37,38513;         ;
928,32759; 37,38002;         ;
929,28251; 37,36908;         ;
930,23742; 37,35651;         ;
931,19234; 37,34728;         ;
932,14725; 37,33576;         ;
933,10217; 37,31842;         ;
934,05708; 37,30384;         ;
935,01200; 37,29272;         ;
935,96691; 37,28477;         ;
936,92183; 37,26710;         ;
937,87674; 37,24917;         ;
938,83166; 37,23510;         ;
939,78657; 37,22350;         ;
940,74149; 37,21374;         ;
941,69640; 37,21225;         ;
942,65132; 37,20151;         ;
943,60623; 37,19176;         ;
944,56115; 37,17265;         ;
945,51606; 37,16462;         ;
946,47098; 37,14849;         ;
947,42589; 37,13333;         ;
948,38081; 37,11589;         ;
949,33572; 37,11202;         ;
950,29064; 37,11195;         ;
951,24555; 37,11430;         ;
952,20047; 37,10578;         ;
953,15538; 37,07283;         ;
954,11030; 37,05472;         ;
955,06521; 37,03966;         ;
956,02013; 37,03560;         ;
956,97504; 37,03612;         ;
957,92996; 37,02588;         ;
958,88487; 37,01363;         ;
959,83979; 37,00034;         ;
960,79470; 36,98308;         ;
961,74962; 36,97791;         ;
962,70453; 36,97497;         ;
963,65945; 36,96808;         ;
964,61436; 36,95776;         ;
965,56928; 36,94472;         ;
966,52419; 36,93535;         ;
967,47911; 36,92036;         ;
968,43402; 36,90354;         ;
969,38894; 36,89091;         ;
970,34385; 36,88303;         ;
971,29877; 36,86686;         ;
972,25368; 36,84767;         ;
973,20860; 36,83159;         ;
974,16351; 36,82084;         ;
975,11843; 36,80620;         ;
976,07334; 36,79393;         ;
977,02826; 36,78025;         ;
977,98317; 36,77741;         ;
978,93809; 36,76259;         ;
979,89300; 36,74747;         ;
980,84792; 36,73475;         ;
981,80283; 36,72982;         ;
982,75775; 36,71008;         ;
983,71266; 36,69834;         ;
984,66758; 36,67996;         ;
985,62249; 36,66425;         ;
986,57741; 36,64827;         ;
987,53232; 36,63641;         ;
988,48724; 36,62075;         ;
989,44215; 36,61703;         ;
990,39707; 36,59871;         ;
991,35198; 36,57088;         ;
992,30690; 36,55757;         ;
993,26181; 36,54655;         ;
994,21673; 36,53068;         ;
995,17164; 36,51743;         ;
996,12656; 36,50268;         ;