File: src/TGA/Dy_TGA.csv
temperature;rate_3;rate_5;rate_10;rate_3_diff;rate_5_diff;rate_10_diff;rate_3_diff_reaction_0;rate_3_diff_reaction_1;rate_3_diff_reaction_2;rate_3_diff_reaction_3;rate_3_diff_reaction_4;rate_3_diff_reaction_5;rate_3_diff_reaction_6;rate_3_diff_cumulative;rate_5_diff_reaction_0;rate_5_diff_reaction_1;rate_5_diff_reaction_2;rate_5_diff_reaction_3;rate_5_diff_reaction_4;rate_5_diff_reaction_5;rate_5_diff_reaction_6;rate_5_diff_cumulative;rate_10_diff_reaction_0;rate_10_diff_reaction_1;rate_10_diff_reaction_2;rate_10_diff_reaction_3;rate_10_diff_reaction_4;rate_10_diff_reaction_5;rate_10_diff_reaction_6;rate_10_diff_cumulative
31.63192;99.99894;100.076;99.96317;0.000189379;0.0257306;-0.006491155;1.06E-07;1.90E-14;2.60E-17;1.79E-05;2.16E-193;1.15E-36;6.83E-23;1.80E-05;3.33E-08;2.45E-32;1.09E-17;3.00E-05;3.21E-201;1.96E-38;1.69E-27;3.00E-05;2.16E-08;3.68E-18;1.23E-16;1.12E-06;4.32E-201;1.72E-53;3.65E-34;1.14E-06
34.49666;100.0006;100.032;99.98113;-0.000609271;0.003258976;-0.005929749;1.34E-07;2.86E-14;4.20E-17;2.00E-05;1.30E-191;2.36E-36;1.03E-22;2.01E-05;4.27E-08;6.35E-32;1.75E-17;3.32E-05;1.92E-199;4.01E-38;2.72E-27;3.33E-05;2.74E-08;5.93E-18;1.86E-16;1.28E-06;1.94E-199;4.48E-53;6.47E-34;1.30E-06
37.36141;99.99758;100.0493;99.99625;0.001757532;-0.003167997;-0.002698396;1.70E-07;4.31E-14;6.77E-17;2.24E-05;7.76E-190;4.83E-36;1.55E-22;2.25E-05;5.48E-08;1.65E-31;2.82E-17;3.68E-05;1.15E-197;8.21E-38;4.38E-27;3.69E-05;3.48E-08;9.56E-18;2.80E-16;1.45E-06;8.68E-198;1.16E-52;1.15E-33;1.49E-06
40.22615;99.98793;100.038;99.99171;0.001331061;0.002414206;0.00185953;2.16E-07;6.49E-14;1.09E-16;2.50E-05;4.65E-188;9.88E-36;2.33E-22;2.53E-05;7.03E-08;4.29E-31;4.55E-17;4.08E-05;6.90E-196;1.68E-37;7.06E-27;4.08E-05;4.42E-08;1.54E-17;4.21E-16;1.66E-06;3.89E-196;3.02E-52;2.03E-33;1.70E-06
43.0909;99.99208;100.046;99.98998;-0.000443904;-0.000156828;0.001107999;2.75E-07;9.77E-14;1.76E-16;2.80E-05;2.78E-186;2.02E-35;3.51E-22;2.83E-05;9.02E-08;1.11E-30;7.34E-17;4.52E-05;4.13E-194;3.44E-37;1.14E-26;4.52E-05;5.61E-08;2.48E-17;6.34E-16;1.89E-06;1.74E-194;7.86E-52;3.61E-33;1.94E-06
45.95564;99.99343;100.052;99.98957;-0.000913434;-0.002663677;-0.00097913;3.49E-07;1.47E-13;2.83E-16;3.13E-05;1.67E-184;4.14E-35;5.28E-22;3.17E-05;1.16E-07;2.90E-30;1.18E-16;5.00E-05;2.47E-192;7.04E-37;1.84E-26;5.01E-05;7.12E-08;4.00E-17;9.54E-16;2.15E-06;7.82E-193;2.04E-51;6.40E-33;2.22E-06
48.82039;100;100.05;99.99414;-0.001528987;-0.001373326;-0.001330555;4.43E-07;2.22E-13;4.57E-16;3.51E-05;9.99E-183;8.47E-35;7.95E-22;3.55E-05;1.48E-07;7.53E-30;1.91E-16;5.54E-05;1.48E-190;1.44E-36;2.96E-26;5.56E-05;9.04E-08;6.45E-17;1.44E-15;2.45E-06;3.50E-191;5.31E-51;1.13E-32;2.54E-06
51.68513;100;100.044;99.99875;0.000413865;0.001065205;0.003031044;5.62E-07;3.34E-13;7.36E-16;3.92E-05;5.98E-181;1.73E-34;1.20E-21;3.98E-05;1.90E-07;1.96E-29;3.07E-16;6.14E-05;8.87E-189;2.95E-36;4.77E-26;6.16E-05;1.15E-07;1.04E-16;2.16E-15;2.79E-06;1.57E-189;1.38E-50;2.01E-32;2.90E-06
54.54988;99.99778;100.038;99.98497;-0.002088801;0.001088347;0.00235356;7.14E-07;5.02E-13;1.19E-15;4.39E-05;3.58E-179;3.55E-34;1.80E-21;4.46E-05;2.44E-07;5.08E-29;4.95E-16;6.80E-05;5.31E-187;6.03E-36;7.69E-26;6.82E-05;1.46E-07;1.68E-16;3.26E-15;3.17E-06;7.04E-188;3.58E-50;3.57E-32;3.32E-06
57.41462;100.007;100.04;99.98492;-0.002317225;0.001165088;-0.000335385;9.06E-07;7.56E-13;1.91E-15;4.91E-05;2.14E-177;7.26E-34;2.71E-21;5.00E-05;3.13E-07;1.32E-28;7.98E-16;7.53E-05;3.18E-185;1.23E-35;1.24E-25;7.56E-05;1.85E-07;2.70E-16;4.90E-15;3.62E-06;3.16E-186;9.31E-50;6.33E-32;3.80E-06
60.27937;100.012;100.042;99.98661;-0.001959111;0.000564782;-0.001293436;1.15E-06;1.14E-12;3.08E-15;5.50E-05;1.28E-175;1.49E-33;4.09E-21;5.61E-05;4.02E-07;3.43E-28;1.29E-15;8.34E-05;1.91E-183;2.53E-35;2.00E-25;8.38E-05;2.35E-07;4.36E-16;7.38E-15;4.12E-06;1.41E-184;2.42E-49;1.12E-31;4.35E-06
63.14411;100.017;100.046;99.9925;-0.001214925;-0.001958021;-0.001007996;1.46E-06;1.71E-12;4.97E-15;6.15E-05;7.69E-174;3.04E-33;6.15E-21;6.30E-05;5.16E-07;8.92E-28;2.07E-15;9.24E-05;1.14E-181;5.17E-35;3.22E-25;9.29E-05;2.98E-07;7.02E-16;1.11E-14;4.69E-06;6.34E-183;6.29E-49;1.99E-31;4.99E-06
66.00886;100.015;100.056;99.98916;0.00101953;-0.004253461;0.000857855;1.85E-06;2.58E-12;8.02E-15;6.88E-05;4.61E-172;6.22E-33;9.27E-21;7.07E-05;6.62E-07;2.32E-27;3.34443E-15;1.02E-04;6.84E-180;1.06E-34;5.19E-25;0.000103024;3.79E-07;1.13E-15;1.67E-14;5.34E-06;2.84E-181;1.63E-48;3.53E-31;5.72E-06
68.8736;100.018;100.064;99.9854;-0.003601608;-0.001508914;0.00169383;2.35E-06;3.89E-12;1.29E-14;7.70E-05;2.76E-170;1.27E-32;1.40E-20;7.93E-05;8.49E-07;6.02E-27;5.39112E-15;1.13E-04;4.09E-178;2.17E-34;8.37E-25;0.000114236;4.81E-07;1.83E-15;2.52E-14;6.09E-06;1.27E-179;4.24E-48;6.26E-31;6.57E-06
71.73835;100.034;100.057;99.9799;-0.002768787;0.00146336;0.000443476;2.99E-06;5.85E-12;2.08E-14;8.61E-05;1.65E-168;2.61E-32;2.10E-20;8.91E-05;1.09E-06;1.56E-26;8.69033E-15;1.26E-04;2.45E-176;4.43E-34;1.35E-24;0.000126689;6.11E-07;2.94E-15;3.80E-14;6.93E-06;5.71E-178;1.10E-47;1.11E-30;7.54E-06
74.60309;100.032;100.055;99.98603;0.002056851;0.000225188;-0.000515182;3.80E-06;8.81E-12;3.36E-14;9.64E-05;9.90E-167;5.33E-32;3.16E-20;1.00E-04;1.40E-06;4.06E-26;1.40085E-14;1.39E-04;1.47E-174;9.07E-34;2.17E-24;0.000140524;7.75E-07;4.74E-15;5.71E-14;7.90E-06;2.56E-176;2.87E-47;1.97E-30;8.67E-06
77.46784;100.027;100.058;99.98579;-0.000287564;0.00000431;-0.00245552;4.82E-06;1.33E-11;5.41231E-14;1.08E-04;5.93E-165;1.09E-31;4.76E-20;0.000112657;1.79E-06;1.06E-25;2.25814E-14;1.54E-04;8.79E-173;1.86E-33;3.51E-24;0.000155903;9.84E-07;7.65E-15;8.60E-14;8.99E-06;1.15E-174;7.45E-47;3.49E-30;9.98E-06
80.33258;100.026;100.06;99.99966;0.001723844;0.000240108;-0.001040338;6.12E-06;2.00E-11;8.72448E-14;1.21E-04;3.55E-163;2.23E-31;7.17E-20;0.000126776;2.30E-06;2.74E-25;3.64005E-14;1.71E-04;5.27E-171;3.80E-33;5.65E-24;0.000173007;1.25E-06;1.23E-14;1.30E-13;1.02E-05;5.14E-173;1.93E-46;6.20E-30;1.15E-05
83.19733;100.012;100.06;99.98791;0.003684998;0.001632934;0.00236661;7.77E-06;3.01E-11;1.40636E-13;1.35E-04;2.13E-161;4.57E-31;1.08E-19;0.000142769;2.95E-06;7.13E-25;5.86766E-14;1.89E-04;3.15E-169;7.78E-33;9.11E-24;0.000192041;1.59E-06;1.99E-14;1.95E-13;1.17E-05;2.31E-171;5.03E-46;1.10E-29;1.33E-05
86.06207;100.006;100.052;99.98576;0.000749259;0.001544161;0.002094066;9.86E-06;4.53E-11;2.26701E-13;1.51E-04;1.27E-159;9.36E-31;1.63E-19;0.000160911;3.78E-06;1.85E-24;9.45849E-14;2.09E-04;1.89E-167;1.59E-32;1.47E-23;0.000213238;2.01E-06;3.20E-14;2.94E-13;1.33E-05;1.03E-169;1.31E-45;1.95E-29;1.53E-05
88.92682;100.01;100.049;99.97739;-0.002323238;0.000617585;0.001246428;1.25E-05;6.82E-11;3.65436E-13;1.69E-04;7.62E-158;1.92E-30;2.45E-19;0.000181525;4.85E-06;4.81E-24;1.52468E-13;2.32E-04;1.13E-165;3.26E-32;2.37E-23;0.000236863;2.56E-06;5.16E-14;4.42E-13;1.51E-05;4.63E-168;3.39E-45;3.46E-29;1.77E-05
91.79156;100.02;100.046;99.97932;-0.000723231;-0.00106547;-0.002711564;1.59E-05;1.03E-10;5.89072E-13;1.89E-04;4.57E-156;3.92E-30;3.69E-19;0.00020499;6.23E-06;1.25E-23;2.45774E-13;2.57E-04;6.77E-164;6.67E-32;3.81E-23;0.000263219;3.25E-06;8.32E-14;6.66E-13;1.72E-05;2.08E-166;8.82E-45;6.13E-29;2.05E-05
94.65631;100.014;100.05;99.98955;0.000345375;-0.000329449;0.0000856;2.02E-05;1.55E-10;9.49567E-13;2.12E-04;2.73E-154;8.02E-30;5.55E-19;0.000231752;7.99E-06;3.25E-23;3.96181E-13;2.85E-04;4.06E-162;1.36E-31;6.15E-23;0.000292651;4.12E-06;1.34E-13;1.00E-12;1.96E-05;9.31E-165;2.29E-44;1.09E-28;2.38E-05
97.52105;100.0209;100.046;99.97785;-0.001686169;0.001863983;0.002717904;2.56E-05;2.33E-10;1.53067E-12;2.37E-04;1.64E-152;1.64E-29;8.36E-19;0.00026234;1.02E-05;8.45E-23;6.38631E-13;3.15E-04;2.43E-160;2.79E-31;9.91E-23;0.00032556;5.23E-06;2.16E-13;1.51E-12;2.24E-05;4.17E-163;5.96E-44;1.93E-28;2.76E-05
100.3858;100.021;100.0408;99.9766;0.001028203;0.002600342;0.001371232;3.25E-05;3.50E-10;2.4674E-12;2.65E-04;9.81E-151;3.36E-29;1.26E-18;0.000297383;1.31E-05;2.20E-22;1.02946E-12;3.49E-04;1.46E-158;5.72E-31;1.60E-22;0.000362405;6.65E-06;3.49E-13;2.27E-12;2.55E-05;1.87E-161;1.55E-43;3.42E-28;3.21E-05
103.251;100.017;100.033;99.972;-0.001902857;0.002377494;0.002511419;4.13E-05;5.28E-10;3.97738E-12;2.96E-04;5.87E-149;6.88E-29;1.89E-18;0.000337631;1.69E-05;5.70E-22;1.65945E-12;3.87E-04;8.71E-157;1.17E-30;2.58E-22;0.000403722;8.44E-06;5.62E-13;3.42E-12;2.90E-05;8.39E-160;4.02E-43;6.06E-28;3.75E-05
106.115;100.033;100.028;99.96197;-0.000607059;-0.000776791;0.001984922;5.25E-05;7.95E-10;6.41142E-12;3.32E-04;3.52E-147;1.41E-28;2.85E-18;0.000383982;2.16E-05;1.48E-21;2.67499E-12;4.29E-04;5.22E-155;2.39E-30;4.15E-22;0.000450136;1.07E-05;9.06E-13;5.15E-12;3.31E-05;3.76E-158;1.04E-42;1.08E-27;4.38E-05
108.98;100.021;100.035;99.96071;0.00232693;-0.0026136;0.001026574;6.66E-05;1.20E-09;1.0335E-11;3.71E-04;2.11E-145;2.88E-28;4.29E-18;0.000437519;2.78E-05;3.85E-21;4.312E-12;4.75E-04;3.13E-153;4.90E-30;6.69E-22;0.000502378;1.36E-05;1.46E-12;7.76E-12;3.77E-05;1.69E-156;2.72E-42;1.91E-27;5.13E-05
111.845;100.018;100.039;99.95654;-0.000139714;0.0000847;0.001275611;8.45E-05;1.80E-09;1.66598E-11;4.15E-04;1.26E-143;5.90E-28;6.47E-18;0.000499545;3.56E-05;1.00E-20;6.95083E-12;5.26E-04;1.87E-151;1.00E-29;1.08E-21;0.000561309;1.73E-05;2.35E-12;1.17E-11;4.29E-05;7.55E-155;7.06E-42;3.38E-27;6.02E-05
114.71;100.018;100.036;99.95528;-0.0000735;0.001245183;-0.000501372;0.000107332;2.71E-09;2.6855E-11;4.64E-04;7.56E-142;1.21E-27;9.74E-18;0.000571643;4.57E-05;2.60E-20;1.12045E-11;5.82E-04;1.12E-149;2.05E-29;1.74E-21;0.000627953;2.19E-05;3.79E-12;1.76E-11;4.89E-05;3.39E-153;1.83E-41;6.00E-27;7.08E-05
117.574;100.018;100.034;99.95904;0.001641233;0.000176685;0.000536405;0.000136262;4.08E-09;4.32895E-11;5.19E-04;4.53E-140;2.47E-27;1.47E-17;0.000655737;5.86E-05;6.76E-20;1.80614E-11;6.45E-04;6.71E-148;4.20E-29;2.80E-21;0.000703525;2.78E-05;6.12E-12;2.65E-11;5.57E-05;1.52E-151;4.76E-41;1.06E-26;8.35E-05
120.439;100.007;100.033;99.95235;0.00040813;0.000942734;0.001269986;0.000172988;6.15E-09;6.97814E-11;5.81E-04;2.71E-138;5.05E-27;2.21E-17;0.000754174;7.52E-05;1.76E-19;2.91144E-11;7.14E-04;4.02E-146;8.60E-29;4.52E-21;0.000789483;3.53E-05;9.86E-12;3.99E-11;6.34E-05;6.80E-150;1.24E-40;1.89E-26;9.88E-05
123.304;100.013;100.027;99.95235;0.003293083;0.00213226;-0.00057079;0.000219607;9.26E-09;1.12486E-10;6.50E-04;1.62E-136;1.03E-26;3.32E-17;0.000869829;9.64E-05;4.56E-19;4.69316E-11;7.91E-04;2.41E-144;1.76E-28;7.28E-21;0.000887579;4.49E-05;1.59E-11;6.00E-11;7.22E-05;3.05E-148;3.22E-40;3.35E-26;0.0001171
126.1685;99.99029;100.023;99.95403;0.00392977;0.000232434;0.000196365;0.00027878;1.39E-08;1.81323E-10;7.27E-04;9.72E-135;2.12E-26;5.00E-17;0.001006231;0.000123671;1.19E-18;7.56522E-11;8.76E-04;1.44E-142;3.60E-28;1.17E-20;0.000999936;5.70E-05;2.56E-11;9.04E-11;8.23E-05;1.37E-146;8.36E-40;5.93E-26;0.00013924
129.033;99.99207;100.024;99.95021;0.000961146;0.002690573;0.002378489;0.000353885;2.10E-08;2.92288E-10;8.14E-04;5.82E-133;4.33E-26;7.54E-17;0.001167726;0.000158635;3.08E-18;1.21949E-10;9.70E-04;8.64E-141;7.37E-28;1.89E-20;0.001129133;7.23E-05;4.13E-11;1.36E-10;9.37E-05;6.13E-145;2.17E-39;1.05E-25;0.000166035
131.898;99.98107;100.008;99.94187;0.005540006;0.002303718;0.001373828;0.000449201;3.16E-08;4.7116E-10;9.10E-04;3.49E-131;8.87E-26;1.13E-16;0.001359681;0.000203478;8.00E-18;1.96579E-10;1.07E-03;5.17E-139;1.51E-27;3.05E-20;0.001278322;9.18E-05;6.66E-11;2.04973E-10;1.07E-04;2.75E-143;5.64E-39;1.87E-25;0.000198558
134.763;99.96138;100.0136;99.94149;0.00619229;-0.000930423;0.002593865;0.000570154;4.76E-08;7.59497E-10;1.02E-03;2.09E-129;1.81E-25;1.71E-16;0.001588733;0.000260984;2.08E-17;3.16879E-10;1.19E-03;3.10E-137;3.09E-27;4.92E-20;0.001451371;0.000116554;1.07E-10;3.08625E-10;1.22E-04;1.23E-141;1.47E-38;3.31E-25;0.000238145
137.627;99.94548;100.0112;99.92764;0.003815675;0.002454571;0.002392592;0.000723617;7.17E-08;1.22429E-09;1.14E-03;1.25E-127;3.71E-25;2.57E-16;0.001863113;0.000334723;5.40E-17;5.10799E-10;1.32E-03;1.86E-135;6.32E-27;7.93E-20;0.001653042;0.000147963;1.73E-10;4.64692E-10;1.38E-04;5.52E-140;3.81E-38;5.87E-25;0.00028646
140.492;99.93897;99.9968;99.92852;0.004437025;0.003059502;-0.000234483;0.000918294;1.08E-07;1.97351E-09;1.27E-03;7.49E-126;7.60E-25;3.87E-16;0.002193042;0.000429265;1.40E-16;8.23394E-10;1.46E-03;1.11E-133;1.29E-26;1.28E-19;0.001889229;0.000187832;2.79E-10;6.99681E-10;1.58E-04;2.47E-138;9.90E-38;1.04E-24;0.000345583
143.357;99.92583;99.9956;99.92726;0.002572345;0.002289656;0.000268318;0.001165197;1.62E-07;3.18124E-09;1.43E-03;4.49E-124;1.56E-24;5.83E-16;0.002591225;0.000550456;3.65E-16;1.32729E-09;1.62E-03;6.65E-132;2.65E-26;2.06E-19;0.00216724;0.000238434;4.49E-10;1.0535E-09;1.80E-04;1.11E-136;2.57E-37;1.85E-24;0.000418116
146.222;99.92484;99.9864;99.92728;0.002753285;0.002796105;0.002415096;0.001478245;2.45E-07;5.12808E-09;1.59E-03;2.69E-122;3.18E-24;8.78E-16;0.003073481;0.000705778;9.48E-16;2.13955E-09;1.79E-03;3.99E-130;5.42E-26;3.32E-19;0.00249617;0.000302652;7.24E-10;1.58624E-09;2.05E-04;4.97E-135;6.68E-37;3.27E-24;0.000507313
149.086;99.9048;99.97601;99.91684;0.005323641;0.004467713;0.003693895;0.001875012;3.68E-07;8.2663E-09;1.78E-03;1.61E-120;6.52E-24;1.32E-15;0.003659503;0.000904783;2.46E-15;3.44889E-09;1.98E-03;2.39E-128;1.11E-25;5.35E-19;0.002887358;0.000384143;1.17E-09;2.38838E-09;2.33E-04;2.23E-133;1.74E-36;5.81E-24;0.000617253
151.951;99.89381;99.95841;99.90554;0.003849784;0.007013093;0.003703186;0.002377651;5.54E-07;1.3325E-08;2.00E-03;9.64E-119;1.33E-23;1.99E-15;0.004373823;0.001159669;6.40E-15;5.55951E-09;2.20E-03;1.43E-126;2.27E-25;8.63E-19;0.003354976;0.000487536;1.88E-09;3.59616E-09;2.66E-04;9.99E-132;4.51E-36;1.03E-23;0.000753048
154.816;99.88041;99.93762;99.89425;0.005486743;0.006648868;0.003402721;0.003014033;8.35E-07;2.14796E-08;2.23E-03;5.77E-117;2.73E-23;3.00E-15;0.005246967;0.001485975;1.66E-14;8.96176E-09;2.43E-03;8.56E-125;4.64E-25;1.39E-18;0.003916738;0.000618694;3.03E-09;5.41469E-09;3.02E-04;4.48E-130;1.17E-35;1.83E-23;0.00092111
157.6807;99.86415;99.92042;99.88548;0.009480428;0.005249745;0.003770534;0.003819139;1.26E-06;3.46245E-08;2.50E-03;3.46E-115;5.59E-23;4.51E-15;0.006316899;0.001903471;4.32E-14;1.44461E-08;2.69E-03;5.13E-123;9.50E-25;2.24E-18;0.004594822;0.000785035;4.89E-09;8.15283E-09;3.44E-04;2.01E-128;3.05E-35;3.24E-23;0.001129482
160.545;99.8314;99.90683;99.87211;0.0102102;0.005875072;0.004215636;0.004836724;1.89E-06;5.58136E-08;2.79E-03;2.07E-113;1.14E-22;6.79E-15;0.007630715;0.002437235;1.12E-13;2.32867E-08;2.98E-03;3.07E-121;1.94E-24;3.61E-18;0.00541696;0.000995935;7.88E-09;1.22756E-08;3.92E-04;9.00E-127;7.92E-35;5.74E-23;0.001388249
163.41;99.80556;99.88963;99.86123;0.0109812;0.005094612;0.004358633;0.006121314;2.85E-06;8.99699E-08;3.12E-03;1.24E-111;2.34E-22;1.02E-14;0.009246702;0.003119;2.92E-13;3.75375E-08;3.30E-03;1.84E-119;3.98E-24;5.83E-18;0.006417815;0.00126323;1.27E-08;1.84832E-08;4.47E-04;4.03E-125;2.06E-34;1.02E-22;0.001710061
166.275;99.76863;99.88024;99.84684;0.0131639;0.005688927;0.005912355;0.007740472;4.29E-06;1.45029E-07;3.49E-03;7.42E-110;4.79E-22;1.54E-14;0.0112367;0.003988726;7.58E-13;6.05093E-08;3.65E-03;1.10E-117;8.15E-24;9.39E-18;0.007640579;0.00160184;2.05E-08;2.78299E-08;5.09E-04;1.81E-123;5.35E-34;1.81E-22;0.002110757
169.14;99.7321;99.85862;99.82992;0.0122829;0.0109139;0.004383902;0.0097774;6.46E-06;2.33782E-07;3.90E-03;4.45E-108;9.80E-22;2.32E-14;0.0136886;0.005096508;1.97E-12;9.75393E-08;4.04E-03;6.60E-116;1.67E-23;1.51E-17;0.009138914;0.002030538;3.30E-08;4.19032E-08;5.80E-04;8.10E-122;1.39E-33;3.20E-22;0.002610163
172.004;99.69831;99.81536;99.82066;0.0156849;0.0123755;0.004099417;0.01233361;9.73E-06;3.7685E-07;4.37E-03;2.66E-106;2.01E-21;3.49E-14;0.01670936;0.006504689;5.12E-12;1.5723E-07;4.47E-03;3.95E-114;3.41E-23;2.44E-17;0.0109791;0.002572877;5.32E-08;6.3093E-08;6.60E-04;3.63E-120;3.61E-33;5.68E-22;0.003233028
174.869;99.64749;99.78184;99.80106;0.0217694;0.0108537;0.009706025;0.0155316;1.46E-05;6.07471E-07;4.88E-03;1.59E-104;4.11E-21;5.26E-14;0.0204278;0.008290211;1.33E-11;2.53451E-07;4.95E-03;2.37E-112;6.98E-23;3.93E-17;0.0132424;0.003258329;8.58E-08;9.49984E-08;7.52E-04;1.63E-118;9.38E-33;1.01E-21;0.004010188
177.734;99.57351;99.748;99.76426;0.0307058;0.0155346;0.009081854;0.0195172;2.21E-05;9.79224E-07;5.46E-03;9.55E-103;8.40E-21;7.92E-14;0.0249967;0.0105469;3.46E-11;4.08555E-07;5.48E-03;1.42E-110;1.43E-22;6.34E-17;0.0160274;0.004123604;1.38E-07;1.43038E-07;8.56E-04;7.30E-117;2.44E-32;1.79E-21;0.004979908
180.599;99.46696;99.69729;99.74796;0.03755887;0.0211735;0.005726817;0.0244602;3.32E-05;1.57848E-06;6.10E-03;5.72E-101;1.72E-20;1.19E-13;0.0305942;0.01338761;8.98E-11;6.58578E-07;6.06E-03;8.48E-109;2.92E-22;1.02E-16;0.0194522;0.005214216;2.23E-07;2.1537E-07;9.75E-04;3.27E-115;6.33E-32;3.17E-21;0.006189476
183.4634;99.35734;99.6297;99.72923;0.0425267;0.0275327;0.007239806;0.0305536;5.00E-05;2.54446E-06;6.82E-03;3.43E-99;3.52E-20;1.79E-13;0.0374232;0.0169452;2.33E-10;1.06161E-06;6.71E-03;5.08E-107;5.99E-22;1.65E-16;0.02365545;0.00658619;3.59E-07;3.2428E-07;1.11E-03;1.47E-113;1.65E-31;5.62E-21;0.00769694
186.328;99.22165;99.54109;99.70486;0.0532915;0.0317267;0.0108131;0.0380093;7.52606E-05;4.10158E-06;7.62E-03;2.05E-97;7.20E-20;2.70E-13;0.0457069;0.0213722;6.07E-10;1.71128E-06;7.42E-03;3.04E-105;1.23E-21;2.66E-16;0.0287961;0.008307942;5.79E-07;4.88264E-07;1.26E-03;6.57E-112;4.28E-31;9.97E-21;0.009573033
189.193;99.05285;99.45144;99.6668;0.0640888;0.0369344;0.0138333;0.0470473;0.0001133;6.61159E-06;8.51E-03;1.23E-95;1.47E-19;4.07E-13;0.0556797;0.02683738;1.58E-09;2.75852E-06;8.21E-03;1.82E-103;2.51E-21;4.28E-16;0.03505;0.0104621;9.34E-07;7.35172E-07;1.44E-03;2.95E-110;1.11E-30;1.77E-20;0.011903
192.058;98.86336;99.324;99.62543;0.0706143;0.0453367;0.0131641;0.0578798;0.000170552;1.06576E-05;9.51E-03;7.36E-94;3.02E-19;6.13E-13;0.0675711;0.0335184;4.10E-09;4.44664E-06;9.08E-03;1.09E-101;5.13E-21;6.90E-16;0.04260257;0.0131469;1.51E-06;1.10694E-06;1.64E-03;1.32E-108;2.89E-30;3.14E-20;0.0147882
194.922;98.64732;99.184;99.5912;0.0787757;0.0513515;0.0158957;0.0706844;0.000256702;1.71796E-05;1.06E-02;4.41E-92;6.17E-19;9.23E-13;0.081581;0.0415882;1.06E-08;7.1678E-06;1.00E-02;6.54E-100;1.05E-20;1.11E-15;0.0516354;0.0164772;2.43E-06;1.6667E-06;1.87E-03;5.92E-107;7.50E-30;5.56E-20;0.018347
197.787;98.40034;99.03024;99.53481;0.0971145;0.0586123;0.02203;0.0855692;0.000386295;2.76924E-05;1.19E-02;2.64E-90;1.26E-18;1.39E-12;0.0978464;0.0511952;2.77E-08;1.15542E-05;1.11E-02;3.91E-98;2.15E-20;1.79E-15;0.0623066;0.020584;3.91E-06;2.50952E-06;2.12E-03;2.65E-105;1.95E-29;9.86E-20;0.0227144
200.652;98.08709;98.84653;99.46486;0.116156;0.0727389;0.0287811;0.102529;0.000581145;4.46379E-05;1.32E-02;1.58E-88;2.59E-18;2.09E-12;0.1164;0.0624363;7.19E-08;1.86246E-05;1.23E-02;2.34E-96;4.40E-20;2.89E-15;0.0747239;0.0256113;6.31E-06;3.77854E-06;2.42E-03;1.19E-103;5.07E-29;1.75E-19;0.0280392
203.517;97.73303;98.61413;99.37113;0.139784;0.088461;0.0377369;0.121398;0.000873906;7.19514E-05;1.48E-02;9.46E-87;5.29E-18;3.15E-12;0.137129;0.0753261;1.87E-07;3.00215E-05;1.36E-02;1.40E-94;9.00E-20;4.66E-15;0.0889144;0.0317108;1.02E-05;5.68927E-06;2.75E-03;5.33E-102;1.32E-28;3.10E-19;0.0344787
206.381;97.29857;98.34164;99.25099;0.157322;0.100824;0.0464542;0.14181;0.001313303;0.000115974;1.65E-02;5.67E-85;1.08E-17;4.74E-12;0.159739;0.0897664;4.85E-07;4.83916E-05;1.50E-02;8.41E-93;1.84E-19;7.51E-15;0.104794;0.0390308;1.64E-05;8.56619E-06;3.13E-03;2.39E-100;3.42E-28;5.50E-19;0.0421879
209.246;96.82824;98.02772;99.10292;0.182479;0.119753;0.0592324;0.163173;0.001971726;0.000186922;1.84E-02;3.39E-83;2.22E-17;7.14E-12;0.183739;0.105526;1.26065E-06;7.80001E-05;1.65E-02;5.04E-91;3.77E-19;1.21E-14;0.122149;0.0477011;2.64E-05;1.28979E-05;3.56E-03;1.07E-98;8.89E-28;9.76E-19;0.0513048
212.111;96.25683;97.65353;98.91548;0.206024;0.140919;0.0642385;0.184668;0.002955972;0.000301248;2.05E-02;2.03E-81;4.54E-17;1.07E-11;0.208454;0.122235;3.27568E-06;0.000125719;1.83E-02;3.02E-89;7.72E-19;1.95E-14;0.140631;0.0578112;4.26E-05;1.94198E-05;4.06E-03;4.80E-97;2.31E-27;1.73E-18;0.061929
214.9756;95.65537;97.23304;98.738;0.223664;0.156383;0.0728658;0.205289;0.00442199;0.000485436;2.29E-02;1.22E-79;9.29E-17;1.62E-11;0.233082;0.139409;8.51142E-06;0.000202616;2.02E-02;1.81E-87;1.58E-18;3.15E-14;0.159783;0.06938567;6.86E-05;2.92393E-05;4.61E-03;2.15E-95;6.00E-27;3.07E-18;0.0740977
217.84;94.96756;96.76612;98.49105;0.251839;0.170023;0.0942612;0.223908;0.006593887;0.000782074;2.55E-02;7.29E-78;1.90E-16;2.44E-11;0.256785;0.156491;2.21146E-05;0.00032651;2.22E-02;1.08E-85;3.23E-18;5.07E-14;0.179087;0.0823572;0.000110568;4.40235E-05;5.25E-03;9.65E-94;1.56E-26;5.44E-18;0.0877604
220.705;94.21285;96.25151;98.21062;0.277636;0.191804;0.109407;0.239365;0.009786058;0.001259554;2.84E-02;4.37E-76;3.89E-16;3.67E-11;0.278815;0.172909;5.7451E-05;0.000526062;2.45E-02;6.48E-84;6.62E-18;8.18E-14;0.198029;0.0965459;0.000178157;6.62816E-05;5.97E-03;4.33E-92;4.05E-26;9.65E-18;0.102759
223.57;93.366;95.65114;97.87083;0.305115;0.220585;0.12683;0.250577;0.0144232;0.002027442;3.16E-02;2.62E-74;7.96E-16;5.53E-11;0.298648;0.188129;0.000149198;0.000847314;2.71E-02;3.88E-82;1.35E-17;1.32E-13;0.216176;0.111649;0.000286988;9.97901E-05;6.79E-03;1.94E-90;1.05E-25;1.71E-17;0.118823
226.435;92.44933;94.98345;97.47747;0.315051;0.23986;0.139319;0.256633;0.0210456;0.003260618;3.52E-02;1.57E-72;1.63E-15;8.32E-11;0.316121;0.201702;0.000387106;0.001364078;2.98E-02;2.32E-80;2.77E-17;2.12E-13;0.23326;0.127249;0.000462109;0.000150232;7.71E-03;8.69E-89;2.74E-25;3.04E-17;0.135576
229.299;91.56279;94.30417;97.06054;0.323427;0.255495;0.1561194;0.256906;0.0302758;0.005236486;3.91E-02;9.38E-71;3.33E-15;1.25E-10;0.331536;0.213269;0.001001997;0.002194272;3.28E-02;1.39E-78;5.67E-17;3.42E-13;0.249291;0.14284;0.000743591;0.000226155;8.77E-03;3.90E-87;7.11E-25;5.38E-17;0.152577
232.164;90.60993;93.54285;96.57292;0.347977;0.266807;0.168283;0.251137;0.0427089;0.00839081;4.35E-02;5.62E-69;6.82E-15;1.89E-10;0.345702;0.222554;0.002577827;0.003525271;3.61E-02;8.33E-77;1.16E-16;5.52E-13;0.264787;0.157874;0.001195248;0.000340413;9.96E-03;1.75E-85;1.85E-24;9.55E-17;0.16937
235.029;89.59024;92.75696;96.08171;0.368654;0.279352;0.185373;0.239516;0.0586943;0.0133971;4.83E-02;3.36E-67;1.40E-14;2.84E-10;0.359866;0.229326;0.006530088;0.005652145;3.97E-02;4.99E-75;2.38E-16;8.90E-13;0.281249;0.171809;0.001917935;0.000512313;1.13E-02;7.83E-84;4.80E-24;1.69E-16;0.185551
237.894;88.50068;91.93111;95.51351;0.389169;0.29696;0.209255;0.222713;0.0780185;0.0212699;5.35E-02;2.01E-65;2.86E-14;4.28E-10;0.375536;0.233359;0.0159284;0.009032988;4.37E-02;2.99E-73;4.86E-16;1.43E-12;0.302002;0.184156;0.003069143;0.000770836;1.28E-02;3.51E-82;1.25E-23;3.00E-16;0.200837
240.7583;87.35135;91.04809;94.89466;0.40449;0.336546;0.222666;0.201845;0.0995864;0.033472;5.93E-02;1.21E-63;5.85E-14;6.44E-10;0.394234;0.234389;0.0357039;0.0143624;4.80E-02;1.79E-71;9.95E-16;2.31E-12;0.332432;0.19451;0.004889962;0.001159399;1.46E-02;1.57E-80;3.24E-23;5.33E-16;0.21513
243.623;86.17611;89.98974;94.2417;0.420583;0.397821;0.234547;0.178348;0.121264;0.0519663;6.57E-02;7.23E-62;1.20E-13;9.69E-10;0.417267;0.232098;0.068366;0.022654;5.27E-02;1.07E-69;2.04E-15;3.73E-12;0.375769;0.202566;0.007737756;0.001742893;1.65E-02;7.05E-79;8.42E-23;9.45E-16;0.22857
246.488;84.9307;88.77253;93.55554;0.451558;0.451331;0.247523;0.153783;0.139952;0.079068;7.26E-02;4.33E-60;2.45E-13;1.46E-09;0.445449;0.226128;0.105479;0.0352943;5.77E-02;6.42E-68;4.17E-15;6.01E-12;0.424629;0.208111;0.0121145;0.002617929;1.87E-02;3.16E-77;2.19E-22;1.68E-15;0.241571
249.353;83.57012;87.41314;92.82278;0.479958;0.490568;0.260367;0.129611;0.151769;0.116884;8.02E-02;2.59E-58;5.02E-13;2.20E-09;0.478505;0.216154;0.133198;0.0539787;6.32E-02;3.85E-66;8.53E-15;9.69E-12;0.466563;0.211016;0.0186633;0.003927539;2.12E-02;1.42E-75;5.69E-22;2.97E-15;0.25482
252.217;82.16853;85.96906;92.05781;0.516897;0.518402;0.264384;0.107006;0.152388;0.166193;8.85E-02;1.55E-56;1.03E-12;3.31E-09;0.514097;0.202018;0.147745;0.08037446;6.92E-02;2.30E-64;1.75E-14;1.56E-11;0.499324;0.21122;0.02808;0.005881635;2.40E-02;6.35E-74;1.48E-21;5.27E-15;0.26919
255.082;80.62377;84.4609;91.29736;0.553884;0.547499;0.283969;0.08675556;0.138409;0.2251;9.75E-02;9.30E-55;2.10E-12;4.98E-09;0.547757;0.183908;0.152995;0.115374;7.56E-02;1.38E-62;3.57E-14;2.52E-11;0.527893;0.208718;0.0408732;0.008784326;2.72E-02;2.85E-72;3.84E-21;9.35E-15;0.285526
257.947;79.00217;82.84894;90.44063;0.585314;0.565169;0.310937;0.0692559;0.11075;0.288509;1.07E-01;5.57E-53;4.30E-12;7.50E-09;0.575729;0.162514;0.151921;0.158076;8.25E-02;8.26E-61;7.31E-14;4.06E-11;0.55505;0.203563;0.0569748;0.0130674;3.07E-02;1.28E-70;9.98E-21;1.66E-14;0.30428
260.812;77.26695;81.22216;89.52465;0.610277;0.577196;0.330393;0.0545764;0.07703546;0.349226;1.18E-01;3.33E-51;8.80E-12;1.13E-08;0.598543;0.13906;0.143833;0.205184;9.00E-02;4.95E-59;1.50E-13;6.54E-11;0.578054;0.195873;0.0753951;0.0193255;3.46E-02;5.72E-69;2.59E-20;2.94E-14;0.325213
263.676;75.52277;79.54016;88.54617;0.61323;0.587347;0.353398;0.042557;0.0471967;0.398309;1.29E-01;2.00E-49;1.80E-11;1.70E-08;0.617048;0.115128;0.124835;0.251697;9.79E-02;2.96E-57;3.06E-13;1.05E-10;0.589603;0.185847;0.0942861;0.0283393;3.90E-02;2.57E-67;6.74E-20;5.21E-14;0.347498
266.541;73.7818;77.85548;87.49985;0.610448;0.584286;0.375117;0.0329048;0.0263214;0.409758;1.41E-01;1.20E-47;3.69E-11;2.56E-08;0.610052;0.0923213;0.0926191;0.292741;1.06E-01;1.77E-55;6.27E-13;1.70E-10;0.584134;0.173776;0.111559;0.0410579;4.39E-02;1.15E-65;1.75E-19;9.25E-14;0.370328
269.406;72.1465;76.18371;86.38605;0.47214;0.574275;0.39928;0.0252718;0.013833;0.287118;1.54E-01;7.16E-46;7.54E-11;3.86E-08;0.480181;0.0719103;0.0553976;0.324896;1.16E-01;1.06E-53;1.28E-12;2.74E-10;0.567716;0.16005;0.125618;0.058492;4.94E-02;5.15E-64;4.55E-19;1.64E-13;0.393549
272.2705;71.15643;74.57668;85.21274;0.251017;0.556902;0.427687;0.0193078;0.007027648;0.0818319;1.68E-01;4.29E-44;1.54E-10;5.81E-08;0.275815;0.0546225;0.0270951;0.344482;1.25E-01;6.36E-52;2.63E-12;4.42E-10;0.551325;0.145147;0.13556;0.0814651;5.54E-02;2.31E-62;1.18E-18;2.91E-13;0.417602
275.135;70.57408;73.01438;83.94623;0.187765;0.529919;0.452292;0.0146913;0.003505603;0.01269873;1.82E-01;2.57E-42;3.16E-10;8.74E-08;0.213018;0.040642;0.0116408;0.337998;1.35E-01;3.81E-50;5.37E-12;7.12E-10;0.52557;0.129604;0.14061;0.110208;6.21E-02;1.04E-60;3.07E-18;5.16E-13;0.44252
278;69.98979;71.58872;82.62812;0.214224;0.43649;0.466261;0.0111435;0.001731905;0.001707354;1.97E-01;1.54E-40;6.47E-10;1.32E-07;0.211932;0.02974915;0.004689906;0.2645105;1.46E-01;2.28E-48;1.10E-11;1.15E-09;0.444944;0.113971;0.138978;0.143913;6.94E-02;4.64E-59;7.98E-18;9.15E-13;0.466293
280.865;69.35345;70.54273;81.27445;0.228259;0.304512;0.478866;0.008432173;8.51E-04;0.000223747;2.13E-01;9.21E-39;1.32E-09;1.98E-07;0.222795;0.0215046;0.001838048;0.123471;1.57E-01;1.37E-46;2.25E-11;1.85E-09;0.304041;0.0987645;0.126842;0.180517;7.75E-02;2.08E-57;2.07E-17;1.62E-12;0.483585
283.729;68.6741;69.79405;79.88261;0.23982;0.237439;0.488826;0.006368761;4.17E-04;2.91263E-05;2.30E-01;5.52E-37;2.71E-09;2.98E-07;0.236696;0.0153998;0.000712399;0.03412483;1.69E-01;8.19E-45;4.61E-11;2.98E-09;0.219198;0.0844162;0.100473;0.216951;8.62E-02;9.33E-56;5.39E-17;2.88E-12;0.488055
286.594;67.97864;69.1432;78.48431;0.253793;0.232342;0.48667;0.004803534;2.04E-04;3.78035E-06;2.47E-01;3.30E-35;5.54E-09;4.49E-07;0.25207;0.0109524;0.000274917;0.007524442;1.81E-01;4.90E-43;9.43E-11;4.81E-09;0.199919;0.0712474;0.0645843;0.249725;9.57E-02;4.18E-54;1.40E-16;5.10E-12;0.481267
289.459;67.2291;68.4466;77.11504;0.266018;0.24295;0.479751;0.003619116;9.99E-05;4.89826E-07;2.65E-01;1.98E-33;1.13E-08;6.76E-07;0.268459;0.007750542;0.000105912;0.00156326;1.94E-01;2.94E-41;1.93E-10;7.75E-09;0.203227;0.0594563;0.03342361;0.275184;1.06E-01;1.87E-52;3.64E-16;9.05E-12;0.474019
292.324;66.45933;67.74423;75.74424;0.281132;0.251626;0.469362;0.002724534;4.89E-05;6.34023E-08;2.83E-01;1.19E-31;2.32E-08;1.02E-06;0.285603;0.005465138;4.07764E-05;0.000320272;2.07E-01;1.76E-39;3.95E-10;1.25E-08;0.21266;0.0491259;0.014833;0.288578;1.17E-01;8.40E-51;9.45E-16;1.60E-11;0.469482
295.188;65.62534;67.02808;74.42426;0.300634;0.255864;0.450858;0.002049813;2.39E-05;8.20136E-09;3.01E-01;7.10E-30;4.75E-08;1.53E-06;0.303299;0.003843793;1.5695E-05;6.53766E-05;2.20E-01;1.05E-37;8.08E-10;2.01E-08;0.22412;0.0402439;0.006069252;0.281889;1.29E-01;3.77E-49;2.46E-15;2.85E-11;0.456862
298.0532;64.73659;66.26983;73.16873;0.311548;0.264612;0.413651;0.001541466;1.17E-05;1.06047E-09;3.20E-01;4.25E-28;9.73E-08;2.31E-06;0.321369;0.002698559;6.04E-06;1.3329E-05;2.34E-01;6.31E-36;1.65E-09;3.24E-08;0.23655;0.0327287;0.002395039;0.244193;1.41E-01;1.69E-47;6.38E-15;5.05E-11;0.420382
300.918;63.83053;65.5119;72.06844;0.333354;0.267056;0.351855;0.001158777;5.70E-06;1.37088E-10;3.38E-01;2.55E-26;1.99E-07;3.48E-06;0.339652;0.00189211;2.32E-06;2.71601E-06;2.48E-01;3.78E-34;3.39E-09;5.23E-08;0.249576;0.0264551;0.0009311;0.174836;1.54E-01;7.57E-46;1.66E-14;8.95E-11;0.356333
303.783;62.8393;64.74074;71.1627;0.349851;0.272845;0.288882;0.000870863;2.79E-06;1.77189E-11;3.57E-01;1.52E-24;4.07E-07;5.23E-06;0.357996;0.001325464;8.95E-07;5.53275E-07;2.62E-01;2.26E-32;6.93E-09;8.43E-08;0.262994;0.0212765;0.00035981;0.099604;1.68E-01;3.39E-44;4.31E-14;1.59E-10;0.288969
306.647;61.81956;63.94571;70.39522;0.362146;0.288147;0.247094;0.000654351;1.36E-06;2.29E-12;3.76E-01;9.13E-23;8.34E-07;7.88E-06;0.376259;0.000927923;3.44E-07;1.12686E-07;2.76E-01;1.35E-30;1.42E-08;1.36E-07;0.276653;0.017041;0.000138709;0.04701303;1.82E-01;1.52E-42;1.12E-13;2.82E-10;0.246028
309.512;60.75658;63.10061;69.725;0.383831;0.29666;0.228513;0.000491593;6.65E-07;2.95988E-13;3.94E-01;5.47E-21;1.71E-06;1.19E-05;0.394312;0.000649323;1.33E-07;2.29486E-08;2.90E-01;8.11E-29;2.90E-08;2.19E-07;0.290427;0.0136027;5.34208E-05;0.0198598;1.96E-01;6.82E-41;2.91E-13;4.99E-10;0.229846
312.377;59.62109;62.24894;69.07069;0.403903;0.309326;0.23635;0.000369275;3.25E-07;3.82479E-14;4.12E-01;3.27E-19;3.49E-06;1.79E-05;0.412036;0.000454226;5.10E-08;4.67317E-09;3.04E-01;4.86E-27;5.94E-08;3.53E-07;0.304209;0.0108287;2.05655E-05;0.007956997;2.11E-01;3.06E-39;7.56E-13;8.85E-10;0.22991
315.242;58.44321;61.34036;68.36367;0.420818;0.322621;0.248397;0.000277368;1.59E-07;4.98904E-15;4.29E-01;1.96E-17;7.15E-06;2.69E-05;0.429325;0.000317678;1.96E-08;9.51594E-10;3.18E-01;2.91E-25;1.22E-07;5.69E-07;0.317901;0.008601602;7.9158E-06;0.003116015;2.26E-01;1.37E-37;1.96E-12;1.57E-09;0.237762
318.106;57.22518;60.419;67.64761;0.44;0.333218;0.256842;0.000208321;7.76308E-08;5.93947E-16;4.46E-01;1.17E-15;1.46E-05;4.05E-05;0.446088;0.000222143;7.55E-09;1.93766E-10;3.31E-01;1.74E-23;2.49E-07;9.18E-07;0.331417;0.006820564;3.04659E-06;0.001208584;2.41E-01;6.14E-36;5.10E-12;2.79E-09;0.249035
320.971;55.92537;59.4376;66.89054;0.464993;0.343248;0.267985;0.000156455;3.79317E-08;1.18791E-16;4.62E-01;7.02E-14;2.99E-05;6.10E-05;0.462244;0.000155321;2.91E-09;3.94548E-11;3.45E-01;1.04E-21;5.09E-07;1.48E-06;0.34468;0.00540076;1.17252E-06;0.00046685;2.56E-01;2.75E-34;1.33E-11;4.94E-09;0.261744
323.836;54.55603;58.4355;66.10654;0.486664;0.354892;0.28077;0.000117497;1.85339E-08;0;4.77E-01;4.20E-12;6.12E-05;9.18E-05;0.477662;0.000108591;1.12E-09;8.03372E-12;3.58E-01;6.25E-20;1.04E-06;2.38E-06;0.357624;0.004271753;4.51247E-07;0.000180006;2.71E-01;1.23E-32;3.45E-11;8.76E-09;0.274985
326.701;53.13858;57.40036;65.2836;0.499;0.370433;0.292919;8.82E-05;9.05594E-09;0;4.91E-01;2.50769E-10;0.000125154;0.000138179;0.491453;7.59163E-05;4.30E-10;1.63582E-12;3.70E-01;3.74E-18;2.13E-06;3.84E-06;0.370191;0.003375782;1.73663E-07;6.93467E-05;2.85E-01;5.53E-31;8.96E-11;1.55E-08;0.288303
329.5654;51.70864;56.32021;64.43078;0.498367;0.383067;0.303353;6.63E-05;4.42485E-09;0;4.94E-01;1.49455E-08;0.000255648;0.000207969;0.494346;5.30711E-05;1.66E-10;3.33064E-13;3.82E-01;2.24E-16;4.36E-06;6.20E-06;0.382328;0.002665866;6.68E-08;2.67039E-05;2.99E-01;2.48E-29;2.33E-10;2.76E-08;0.301438
332.43;50.37344;55.21202;63.53758;0.40923;0.401192;0.313509;4.98E-05;2.16204E-09;0;4.09E-01;8.87406E-07;0.000521164;0.000312942;0.409418;3.70997E-05;6.38E-11;6.78564E-14;3.94E-01;1.34E-14;8.93E-06;9.99E-06;0.393976;0.002104078;2.57E-08;1.02807E-05;3.12E-01;1.11E-27;6.05E-10;4.89E-08;0.314218
335.295;49.48016;54.02068;62.62666;0.151121;0.414577;0.324808;3.74E-05;1.0564E-09;0;1.35E-01;5.22918E-05;0.001058174;0.000470754;0.136845;2.59342E-05;2.45E-11;1.37667E-14;4.05E-01;8.04E-13;1.83E-05;1.61E-05;0.404961;0.001659949;9.90E-09;3.95739E-06;3.25E-01;4.98E-26;1.57E-09;8.67E-08;0.32652
338.16;49.39721;52.82981;61.67884;0.011707;0.417713;0.338886;2.81E-05;5.1617E-10;0;0.0166219;0.002849125;0.002131208;0.000707817;0.0223381;1.81288E-05;9.44E-12;2.84216E-15;4.14E-01;4.81E-11;3.74E-05;2.59E-05;0.41427;0.001309115;3.81E-09;1.52321E-06;3.37E-01;2.23E-24;4.08E-09;1.54E-07;0.338253
341.024;49.29872;51.64382;60.68638;0.0393511;0.416201;0.348966;2.11E-05;2.52207E-10;0;0.001613488;0.0328812;0.004224451;0.001063513;0.03980372;1.27E-05;3.63E-12;5.32906E-16;4.15E-01;2.88E-09;7.65E-05;4.18E-05;0.415236;0.001032147;1.47E-09;5.86257E-07;3.48E-01;1.00E-22;1.06E-08;2.73E-07;0.349352
343.889;49.19848;50.48839;59.66826;0.0433657;0.382134;0.360216;1.58E-05;1.23232E-10;0;0.00015241;0.0374346;0.008122923;0.001596266;0.047322;8.86E-06;1.40E-12;8.88178E-17;3.70E-01;1.72381E-07;1.56E-04;6.74E-05;0.370694;0.000813602;5.64E-10;2.25633E-07;3.59E-01;4.49E-21;2.76E-08;4.83E-07;0.359773
346.754;49.05141;49.55302;58.61133;0.0551728;0.221204;0.381057;1.19E-05;6.02123E-11;0.00E+00;1.43387E-05;0.03332603;0.0147925;0.00239212;0.0505369;6.19E-06;5.38E-13;0;2.03E-01;1.02982E-05;0.000319103;0.000108622;0.203908;0.000641222;2.17E-10;8.68371E-08;3.69E-01;2.01E-19;7.16E-08;8.57E-07;0.36949
349.619;48.89267;49.23322;57.49693;0.0578577;0.0551863;0.3901;8.92E-06;2.94205E-11;0.00E+00;1.34667E-06;0.0277591;0.0246903;0.003576334;0.056036;4.33E-06;2.07E-13;0;0.0503389;0.000604272;0.000649652;0.000175008;0.0517721;0.000505297;8.36E-11;3.34198E-08;3.78E-01;9.01E-18;1.86E-07;1.52E-06;0.378489
352.483;48.72406;49.13993;56.39249;0.0631583;0.025247;0.397136;6.70E-06;1.43752E-11;0.00E+00;1.26299E-07;0.0214133;0.0366169;0.005328161;0.0633652;3.03E-06;7.97E-14;0;0.008379063;0.0184379;0.001315502;0.000281885;0.0284174;0.000398143;3.22E-11;1.28617E-08;3.86E-01;4.04E-16;4.84E-07;2.70E-06;0.386747
355.3481;48.52503;49.02886;55.2283;0.069697;0.0398176;0.403262;5.03E-06;7.0239E-12;0.00E+00;1.18302E-08;0.0152362;0.0477045;0.007897369;0.0708431;2.11E-06;3.07E-14;0;0.001280713;0.0360167;0.002635323;0.00045381;0.0403886;0.000313686;1.24E-11;4.94981E-09;3.94E-01;1.81E-14;1.26E-06;4.78E-06;0.394165
358.213;48.31722;48.91253;54.0846;0.0737488;0.0435446;0.396677;3.78E-06;3.43197E-12;0.00E+00;1.10682E-09;0.0100795;0.0554192;0.011618;0.0771205;1.48E-06;1.18E-14;0.00E+00;0.000192913;0.0352928;0.005169833;0.000730028;0.0413871;0.000247128;4.76E-12;1.90492E-09;4.00E-01;8.12E-13;3.27E-06;8.48E-06;0.400276
361.078;48.10098;48.78096;52.95805;0.0777437;0.04706877;0.387827;2.84E-06;1.67689E-12;0.00E+00;1.03443E-10;0.006298765;0.0589917;0.0169088;0.0822021;1.03E-06;4.54747E-15;0.00E+00;2.89653E-05;0.0328616;0.009753194;0.001172901;0.0438177;1.95E-04;1.83E-12;7.33105E-10;4.03E-01;3.64E-11;8.48E-06;1.50E-05;0.403055
363.942;47.87967;48.64301;51.86558;0.083273;0.049027;0.369967;2.13E-06;8.19371E-13;0.00E+00;9.65844E-12;0.003782534;0.0587716;0.0242401;0.0867964;7.22E-07;1.74083E-15;0.00E+00;4.34277E-06;0.0287877;0.0172038;0.001880685;0.0478773;1.53E-04;7.05E-13;2.82132E-10;3.94E-01;1.63E-09;2.20E-05;2.67E-05;0.394383
366.807;47.62491;48.49624;50.85116;0.0888406;0.053842;0.327334;1.60E-06;4.0034E-13;0.00E+00;9.00979E-13;0.002213988;0.0552138;0.03404331;0.0914727;5.05E-07;6.75016E-16;0.00E+00;6.504E-07;0.0229617;0.0274241;0.003005979;0.053393;1.21E-04;2.71E-13;1.08578E-10;3.48E-01;7.30E-08;5.72E-05;4.73E-05;0.348168
369.672;47.3629;48.33525;50.03442;0.0995861;0.05991703;0.237675;1.20E-06;1.95599E-13;0.00E+00;8.40146E-14;0.001275753;0.0486815;0.0465451;0.0965036;3.53E-07;2.4869E-16;0.00E+00;9.73117E-08;0.0162366;0.0385337;0.004780414;0.0595512;9.52E-05;1.04E-13;4.17855E-11;2.29E-01;3.2695E-06;1.49E-04;8.38E-05;0.229202
372.537;47.05944;48.15623;49.50667;0.107552;0.0666894;0.100214;9.02E-07;9.56035E-14;0.00E+00;7.81446E-15;0.000728353;0.0398509;0.0615592;0.102139;2.47E-07;1.06581E-16;0.00E+00;1.45466E-08;0.0101516;0.0477273;0.007542436;0.0654217;7.50E-05;4.02E-14;1.6081E-11;9.38E-02;0.000145703;0.000384584;0.000148609;0.0945662
375.401;46.76233;47.95108;49.40958;0.112665;0.0732387;0.0322519;6.77E-07;4.66782E-14;0.00E+00;7.01818E-16;0.000413609;0.0300407;0.07834289;0.108798;1.72E-07;3.55271E-17;0.00E+00;2.17268E-09;0.005745064;0.0532956;0.01175624;0.0707971;5.90E-05;1.55E-14;6.18869E-12;0.0271269;0.005806677;0.000990184;0.000263305;0.0342461
378.266;46.42206;47.73563;49.27104;0.117263;0.0760388;0.0522751;5.09E-07;2.28284E-14;0.00E+00;0;0.000234156;0.0208838;0.09566248;0.116781;1.21E-07;0;0.00E+00;3.24267E-10;0.003042328;0.0550928;0.0179919;0.0761271;4.65E-05;5.97E-15;2.3817E-12;0.006854927;0.0450535;0.002513275;0.000466178;0.05493435
381.131;46.08341;47.51386;49.11203;0.1230815;0.0818114;0.0626465;3.82E-07;1.11333E-14;0.00E+00;0;0.000132332;0.0135495;0.112078;0.12576;8.43E-08;0;0.00E+00;4.83621E-11;0.001549976;0.0535608;0.02681535;0.0819262;3.66E-05;2.31E-15;9.16552E-13;0.001667798;0.0514547;0.006159724;0.000824285;0.0601432
383.996;45.70809;47.26259;48.91085;0.133772;0.0881403;0.0668115;2.87E-07;5.46452E-15;0;0.00E+00;7.47124E-05;0.008347944;0.125763;0.134186;5.89E-08;0;0.00E+00;7.20838E-12;0.000773472;0.0490647;0.0385406;0.0883789;2.89E-05;8.88E-16;3.52713E-13;0.000401749;0.0481192;0.0139477;0.001454133;0.0639516
386.8603;45.31348;47.00396;48.72661;0.140729;0.0926186;0.0711971;2.15E-07;2.65565E-15;0;0.00E+00;4.21578E-05;0.004966272;0.126958;0.131967;4.12E-08;0;0.00E+00;1.07378E-12;0.000381903;0.0420051;0.0528866;0.0952737;2.27E-05;3.55E-16;1.36E-13;9.64931E-05;0.0417722;0.0271615;0.002554945;0.0716078
389.725;44.94382;46.73625;48.50418;0.0743655;0.101253;0.0797541;1.62E-07;1.27676E-15;0;0.00E+00;2.37809E-05;0.002889958;0.0663107;0.0692246;2.88E-08;0;0.00E+00;1.59861E-13;0.000187566;0.03324785;0.0687657;0.102201;1.79E-05;1.42E-16;5.23E-14;2.31493E-05;0.0323194;0.0427116;0.00445775;0.0795298
392.59;44.89005;46.42969;48.27253;0.003785167;0.105131;0.0812525;1.21E-07;6.12843E-16;0;0.00E+00;1.34122E-05;0.001659481;0.008781921;0.0104549;2.01E-08;0;0.00E+00;2.38E-14;9.18791E-05;0.0242146;0.0845058;0.108812;1.41E-05;3.55E-17;2.01E-14;5.54986E-06;0.0215247;0.05464703;0.007684964;0.0838763
395.455;44.87969;46.12782;48.03105;0.004149071;0.115324;0.0880442;9.12E-08;3.06422E-16;0;0.00E+00;7.56357E-06;0.000945511;0.00070722;0.001660386;1.41E-08;0;0.00E+00;3.52E-15;4.49489E-05;0.016327;0.0984898;0.114862;1.11E-05;3.55E-17;7.70E-15;1.32985E-06;0.0123692;0.0608731;0.0129859;0.0862406
398.319;44.86934;45.77058;47.76885;0.002139627;0.123979;0.093929;6.85E-08;1.53211E-16;0;0.00E+00;4.26511E-06;5.36E-04;5.36E-05;0.000594277;9.83E-09;0;0.00E+00;4.71E-16;2.19758E-05;0.0103456;0.10973;0.120097;8.75E-06;0.00E+00;3.00E-15;3.18512E-07;0.006367228;0.0628619;0.0212516;0.0904898
401.184;44.86658;45.42293;47.49645;0.002551357;0.12494;0.10069;5.14E-08;5.10703E-17;0;0.00E+00;2.40503E-06;3.03E-04;4.03E-06;0.000309896;6.87E-09;0;0.00E+00;1.18E-16;1.07408E-05;0.006270534;0.117569;0.12385;6.89E-06;0.00E+00;1.13E-15;7.62581E-08;0.003068043;0.06203091;0.0331486;0.0982546
404.049;44.85279;45.0592;47.19613;0.004324398;0.118146;0.102883;3.86E-08;5.10703E-17;0;0.00E+00;1.35613E-06;1.71E-04;3.01E-07;0.000173103;4.80E-09;0;0;0.00E+00;5.24886E-06;0.003691508;0.114183;0.11788;5.43E-06;0.00E+00;4.05E-16;1.82514E-08;0.00142813;0.0586486;0.0484389;0.108521
406.914;44.84796;44.75791;46.89518;0.000839117;0.0585685;0.113693;2.90E-08;0;0;0.00E+00;7.65E-07;9.68E-05;2.24E-08;9.76E-05;3.36E-09;0;0;0.00E+00;2.56484E-06;0.002134503;0.0509428;0.0530799;4.27E-06;0.00E+00;1.62E-16;4.36695E-09;0.000653741;0.05223288;0.0654654;0.118356
409.778;44.84279;44.71299;46.53218;0.00270438;0.006877934;0.122666;2.18E-08;0;0;0.00E+00;4.31E-07;5.46E-05;1.66E-09;5.50E-05;2.35E-09;0;0;0.00E+00;1.25325E-06;0.001221086;0.004742307;0.005964649;3.37E-06;0.00E+00;8.10E-17;1.04459E-09;0.000296929;0.0425416;0.0816437;0.124486
412.643;44.82521;44.6975;46.18898;0.005350457;0.004056946;0.126366;1.63E-08;0;0;0.00E+00;2.43E-07;3.08E-05;1.23E-10;3.11E-05;1.64E-09;0;0;0.00E+00;6.12366E-07;0.000694221;0.000283433;0.000978268;2.65E-06;0.00E+00;0.00E+00;2.49811E-10;0.000134384;0.03080488;0.0948136;0.125755
415.508;44.81555;44.6866;45.82808;0.002864651;0.004878627;0.12673;1.23E-08;0;0;0.00E+00;1.37E-07;1.74E-05;9.13E-12;1.75E-05;1.15E-09;0;0;0.00E+00;2.99212E-07;3.93E-04;1.63E-05;0.000409894;2.09E-06;0.00E+00;0.00E+00;5.97E-11;6.07201E-05;0.0196834;0.103785;0.123532
418.372;44.80832;44.66784;45.48561;0.002880439;0.003855525;0.126719;9.22E-09;0;0;0.00E+00;7.73E-08;9.79E-06;6.76E-13;9.88E-06;8.02E-10;0;0;0.00E+00;1.46199E-07;2.22E-04;9.35E-07;0.000223423;1.64E-06;0.00E+00;0.00E+00;1.43E-11;2.74158E-05;0.0113189;0.104677;0.116025
421.237;44.7959;44.66975;45.13042;0.005559245;0.002298091;0.07675231;6.92E-09;0;0;0.00E+00;4.36E-08;5.52E-06;5.00E-14;5.57E-06;5.60E-10;0;0;0.00E+00;7.14E-08;1.26E-04;5.34E-08;1.26E-04;1.30E-06;0.00E+00;0.00E+00;3.41E-12;1.23744E-05;0.006053681;0.0739953;0.0800626
424.102;44.78279;44.6582;45.04665;0.005313144;0.003287863;0.0150535;5.20E-09;0;0;0.00E+00;2.46E-08;3.11E-06;3.70E-15;3.14E-06;3.92E-10;0;0;0.00E+00;3.49E-08;7.09E-05;3.05E-09;7.09E-05;1.02E-06;0.00E+00;0.00E+00;8.16E-13;5.58449E-06;0.00310123;0.0187274;0.0218352
426.967;44.77004;44.64714;45.02142;0.00372656;0.003563462;0.00292574;3.90E-09;0;0;0.00E+00;1.39E-08;1.76E-06;2.64E-16;1.77E-06;2.74E-10;0;0;0.00E+00;1.71E-08;4.00E-05;1.74E-10;4.00E-05;8.04E-07;0.00E+00;0.00E+00;1.95E-13;2.52006E-06;0.00155204;0.002313495;0.003868859
429.831;44.75935;44.63702;45.01532;0.002695092;0.003752459;-0.001229573;2.93E-09;0;0;0.00E+00;7.81E-09;9.90E-07;3.77E-17;1.00E-06;1.91E-10;0;0;0.00E+00;8.33E-09;2.25E-05;9.93E-12;2.26E-05;6.33E-07;0;0.00E+00;4.65E-14;1.13718E-06;0.000767439;0.000247935;0.001017145
432.696;44.75108;44.6274;45.02656;0.004366815;0.005145237;0.000308441;2.20E-09;0;0;0.00E+00;4.41E-09;5.5822E-07;0;5.65E-07;1.34E-10;0;0;0.00E+00;4.07E-09;1.27E-05;5.66E-13;1.27E-05;4.99E-07;0;0.00E+00;1.11E-14;5.13141E-07;3.77E-04;2.61E-05;0.000404281
435.561;44.7387;44.61274;45.01407;0.002870649;0.005258665;0.00306492;1.65E-09;0;0;0.00E+00;2.48E-09;3.1476E-07;0;3.19E-07;9.35E-11;0;0;0.00E+00;1.99E-09;7.17E-06;3.23E-14;7.17E-06;3.93E-07;0;0.00E+00;2.64E-15;2.3155E-07;1.85E-04;2.73E-06;0.00018819
438.426;44.73384;44.60102;45.0094;0.004421844;0.001358939;0.003439701;1.24E-09;0;0;0.00E+00;1.40E-09;1.77481E-07;0;1.80E-07;6.54E-11;0;0;0.00E+00;9.72E-10;4.04E-06;1.83E-15;4.04E-06;3.09E-07;0;0.00E+00;6.11E-16;1.04E-07;9.04E-05;2.86E-07;9.11E-05
441.29;44.71281;44.60422;44.99607;0.003748497;0.001411144;0.001785171;9.32E-10;0;0;0.00E+00;7.90E-10;1.00074E-07;0;1.02E-07;4.57E-11;0;0;0.00E+00;4.75E-10;2.28E-06;1.20E-16;2.28E-06;2.44E-07;0;0.00E+00;1.02E-16;4.71E-08;4.42E-05;3.00E-08;4.45E-05
444.1552;44.70936;44.58751;44.99981;-0.002167723;0.005571101;-0.001265413;7.00E-10;0;0;0.00E+00;4.45E-10;5.6428E-08;0;5.76E-08;3.19E-11;0;0;0.00E+00;2.32E-10;1.29E-06;0.00E+00;1.29E-06;1.92E-07;0;0.00E+00;0.00E+00;2.13E-08;2.16E-05;3.14E-09;2.18E-05
447.02;44.71074;44.57097;45.00278;0.002694588;0.004208382;0.000346615;5.25E-10;0;0;0.00E+00;2.51E-10;3.18175E-08;0;3.26E-08;2.23E-11;0;0;0.00E+00;1.13E-10;7.24802E-07;0;7.25E-07;1.51E-07;0;0.00E+00;0.00E+00;9.60E-09;1.06E-05;3.28E-10;1.07E-05
449.885;44.69764;44.56502;44.99814;0.006368112;0.003348477;0.002452494;3.94E-10;0;0;0.00E+00;1.42E-10;1.79406E-08;0;1.85E-08;1.56E-11;0;0;0.00E+00;5.54E-11;4.08689E-07;0;4.09E-07;1.19E-07;0;0;0.00E+00;4.33E-09;5.16E-06;3.43E-11;5.28E-06
452.749;44.68384;44.55183;44.98812;0.002396474;0.001905675;0.002973641;2.96E-10;0;0;0.00E+00;7.98E-11;1.0116E-08;0;1.05E-08;1.09E-11;0;0;0.00E+00;2.71E-11;2.30444E-07;0;2.30E-07;9.37E-08;0;0;0.00E+00;1.95E-09;2.52E-06;3.59E-12;2.62E-06
455.614;44.68143;44.55229;44.981;0.0030907;0.002165888;0.000419293;2.22E-10;0;0;0.00E+00;4.50E-11;5.70401E-09;0;5.97E-09;7.62E-12;0;0;0.00E+00;1.32E-11;1.29938E-07;0;1.30E-07;7.38E-08;0;0;0.00E+00;8.82E-10;1.23E-06;3.76E-13;1.31E-06
458.479;44.66491;44.53784;44.98518;0.004645959;0.00489486;-0.000187112;1.67E-10;0;0;0.00E+00;2.54E-11;3.21627E-09;0;3.41E-09;5.33E-12;0;0;0.00E+00;6.46E-12;7.32672E-08;0;7.33E-08;5.82E-08;0;0;0.00E+00;3.98E-10;6.02E-07;3.93E-14;6.61E-07
461.344;44.66251;44.52776;44.98184;0.002906496;0.003119543;0.001294285;1.25E-10;0;0;0.00E+00;1.43E-11;1.81352E-09;0;1.95E-09;3.73E-12;0;0;0.00E+00;3.16E-12;4.13124E-08;0;4.13E-08;4.58E-08;0;0;0.00E+00;1.80E-10;2.94E-07;4.10E-15;3.40E-07
464.208;44.6549;44.5206;44.9785;0.000565751;0.002887332;0.002291542;9.42E-11;0;0;0.00E+00;8.07E-12;1.02257E-09;0;1.12E-09;2.60E-12;0;0;0.00E+00;1.54E-12;2.32945E-08;0;2.33E-08;3.61E-08;0;0;0.00E+00;8.10E-11;1.44E-07;4.26E-16;1.80E-07
467.073;44.65279;44.50879;44.968;0.002912857;0.001621927;0.001595072;7.07E-11;0;0;0.00E+00;4.55E-12;5.76589E-10;0;6.52E-10;1.82E-12;0;0;0.00E+00;7.54E-13;1.31348E-08;0;1.31E-08;2.84E-08;0;0;0.00E+00;3.66E-11;7.02E-08;5.33E-17;9.87E-08
469.9379;44.63419;44.50585;44.96888;0.006257039;0.000949323;0.001311559;5.31E-11;0;0;0.00E+00;2.57E-12;3.25116E-10;0;3.81E-10;1.27E-12;0;0;0.00E+00;3.68E-13;7.4062E-09;0;7.41E-09;2.24E-08;0;0;0.00E+00;1.65E-11;3.432E-08;0;5.67E-08
472.803;44.62178;44.50105;44.96136;0.003114242;0.002267942;0.001711032;3.99E-11;0;0;0.00E+00;1.45E-12;1.8332E-10;0;2.25E-10;8.89E-13;0;0;0.00E+00;1.80E-13;4.17606E-09;0;4.18E-09;1.76E-08;0;0;0.00E+00;7.45E-12;1.67691E-08;0;3.44E-08
475.667;44.61489;44.49463;44.9576;0.000806008;0.002588279;0.001931453;2.99E-11;0;0;0.00E+00;8.16E-13;1.03367E-10;0;1.34E-10;6.22E-13;0;0;0.00E+00;8.79E-14;2.35472E-09;0;2.36E-09;1.39E-08;0;0;0.00E+00;3.36E-12;8.19362E-09;0;2.21E-08
478.532;44.61351;44.49043;44.94717;0.003992906;0.003713914;0.002128131;2.25E-11;0;0;0.00E+00;4.60E-13;5.82843E-11;0;8.12E-11;4.35E-13;0;0;0.00E+00;4.30E-14;1.32773E-09;0;1.33E-09;1.09E-08;0;0;0.00E+00;1.52E-12;4.0035E-09;0;1.49E-08
481.397;44.59394;44.47706;44.94546;0.006675322;0.003105054;0.000594402;1.69E-11;0;0;0.00E+00;2.59E-13;3.28642E-11;0;5.00E-11;3.04E-13;0;0;0.00E+00;2.10E-14;7.48654E-10;0;7.49E-10;8.61E-09;0;0;0.00E+00;6.84E-13;1.95616E-09;0;1.06E-08
484.262;44.5811;44.46906;44.94506;0.005539058;0.00531166;0.002038302;1.27E-11;0;0;0.00E+00;1.46E-13;1.85308E-11;0;3.14E-11;2.12E-13;0;0;0.00E+00;1.03E-14;4.22136E-10;0;4.22E-10;6.78E-09;0;0;0.00E+00;3.09E-13;9.55802E-10;0;7.74E-09
487.126;44.56627;44.44338;44.93503;0.001046879;0.004560842;0.002312797;9.52E-12;0;0;0.00E+00;8.25E-14;1.04488E-11;0;2.01E-11;1.48E-13;0;0;0.00E+00;5.01E-15;2.38026E-10;0;2.38E-10;5.34E-09;0;0;0.00E+00;1.39E-13;4.67017E-10;0;5.81E-09
489.991;44.57007;44.44307;44.93208;0.002166104;0.002190873;0.001252473;7.15E-12;0;0;0.00E+00;4.65E-14;5.89165E-12;0;1.31E-11;1.04E-13;0;0;0.00E+00;2.45E-15;1.34213E-10;0;1.34E-10;4.21E-09;0;0;0.00E+00;6.29E-14;2.2819E-10;0;4.44E-09
492.856;44.55007;44.43389;44.92751;0.004720456;0.004245528;0.001466919;5.37E-12;0;0;0.00E+00;2.62E-14;3.32208E-12;0;8.72E-12;7.25E-14;0;0;0.00E+00;1.20E-15;7.56775E-11;0;7.58E-11;3.31E-09;0;0;0.00E+00;2.84E-14;1.11497E-10;0;3.43E-09
495.721;44.5445;44.41907;44.92534;0.002190643;0.005007582;0.001517699;4.03E-12;0;0;0.00E+00;1.48E-14;1.87318E-12;0;5.92E-12;5.07E-14;0;0;0.00E+00;5.82E-16;4.26715E-11;0;4.27E-11;2.61E-09;0;0;0.00E+00;1.28E-14;5.44785E-11;0;2.67E-09
498.585;44.53659;44.40595;44.91998;0.001472123;0.004358258;0.000884133;3.03E-12;0;0;0.00E+00;8.33E-15;1.05622E-12;0;4.09E-12;3.54E-14;0;0;0.00E+00;2.87E-16;2.40608E-11;0;2.41E-11;2.06E-09;0;0;0.00E+00;5.78E-15;2.66189E-11;0;2.08E-09
500.495;44.53659;44.39879;44.91998;0.000426645;0.00477235;-0.000271983;2.50E-12;0;0;0.00E+00;5.69E-15;7.2089E-13;0;3.23E-12;2.50E-12;0;0;0.00E+00;5.69E-15;7.2089E-13;0;3.23E-12;2.50E-12;0;0;0.00E+00;5.69E-15;7.2089E-13;0;3.23E-12