File: src/TGA/Er_TGA.csv
temperature;rate_3;rate_5;rate_10;rate_3_diff;rate_5_diff;rate_10_diff;rate_3_diff_reaction_0;rate_3_diff_reaction_1;rate_3_diff_reaction_2;rate_3_diff_reaction_3;rate_3_diff_reaction_4;rate_3_diff_reaction_5;rate_3_diff_reaction_6;rate_3_diff_cumulative;rate_5_diff_reaction_0;rate_5_diff_reaction_1;rate_5_diff_reaction_2;rate_5_diff_reaction_3;rate_5_diff_reaction_4;rate_5_diff_reaction_5;rate_5_diff_reaction_6;rate_5_diff_cumulative;rate_10_diff_reaction_0;rate_10_diff_reaction_1;rate_10_diff_reaction_2;rate_10_diff_reaction_3;rate_10_diff_reaction_4;rate_10_diff_reaction_5;rate_10_diff_reaction_6;rate_10_diff_cumulative
30.661;100;100;100;0;0;0;8.71E-07;4.22E-22;1.95E-22;4.31E-06;6.26E-180;2.59E-50;4.28E-39;5.18E-06;5.37E-07;6.59E-16;1.11E-16;1.99E-08;2.39E-146;5.92E-51;7.43E-32;5.57E-07;1.65E-07;1.52E-19;7.50E-18;1.49E-10;1.33E-174;2.17E-54;1.06E-41;1.65E-07
33.52574;99.67082;100.385;99.62662;-0.000240858;-0.0107967;-0.005822477;1.03E-06;7.49E-22;3.45E-22;4.83E-06;2.25E-178;6.74E-50;8.77E-39;5.86E-06;6.42E-07;9.93E-16;1.68E-16;2.35E-08;4.20E-145;1.54E-50;1.32E-31;6.66E-07;1.97E-07;2.45E-19;1.13E-17;1.83E-10;3.22E-173;5.63E-54;2.17E-41;1.97E-07
36.39049;99.68566;100.391;99.64989;-0.00344831;-0.003806889;-0.005520346;1.22E-06;1.33E-21;6.12E-22;5.42E-06;8.07E-177;1.75E-49;1.79E-38;6.64E-06;7.68E-07;1.49E-15;2.52E-16;2.79E-08;7.36E-144;4.00E-50;2.34E-31;7.96E-07;2.36E-07;3.95E-19;1.70E-17;2.25E-10;7.76E-172;1.46E-53;4.43E-41;2.36E-07
39.25523;99.69003;100.416;99.65626;-0.003575234;-4.57E-05;-0.001307624;1.44E-06;2.36E-21;1.09E-21;6.08E-06;2.90E-175;4.55E-49;3.67E-38;7.52E-06;9.19E-07;2.25E-15;3.80E-16;3.30E-08;1.29E-142;1.04E-49;4.14E-31;9.52E-07;2.82E-07;6.37E-19;2.56E-17;2.76E-10;1.87E-170;3.80E-53;9.08E-41;2.82E-07
42.11998;99.6886;100.3999;99.65735;-0.003528528;0.002901899;-0.002103596;1.71E-06;4.18E-21;1.93E-21;6.82E-06;1.04E-173;1.18E-48;7.52E-38;8.52E-06;1.10E-06;3.39E-15;5.72E-16;3.90E-08;2.27E-141;2.70E-49;7.35E-31;1.14E-06;3.37E-07;1.03E-18;3.85E-17;3.38E-10;4.51E-169;9.88E-53;1.86E-40;3.38E-07
44.98472;99.71263;100.398;99.6569;-0.004271157;-0.001725025;-0.001230152;2.02E-06;7.41E-21;3.41E-21;7.64E-06;3.74E-172;3.07E-48;1.54E-37;9.67E-06;1.31E-06;5.10E-15;8.61E-16;4.62E-08;3.98E-140;7.01E-49;1.30E-30;1.36E-06;4.04E-07;1.66E-18;5.80E-17;4.15E-10;1.09E-167;2.57E-52;3.80E-40;4.04E-07
47.84947;99.72071;100.4051;99.66812;0.000493159;-0.002516815;-0.002879332;2.39E-06;1.31E-20;6.06E-21;8.57E-06;1.34E-170;7.98E-48;3.15E-37;1.10E-05;1.57E-06;7.68E-15;1.30E-15;5.47E-08;6.98E-139;1.82E-48;2.31E-30;1.63E-06;4.83E-07;2.67E-18;8.74E-17;5.09E-10;2.63E-166;6.67E-52;7.78E-40;4.83E-07
50.71421;99.72274;100.41;99.66586;-0.002402001;-0.00134056;0.00055393;2.83E-06;2.33E-20;1.07E-20;9.61E-06;4.82E-169;2.07E-47;6.44E-37;1.24E-05;1.88E-06;1.16E-14;1.95E-15;6.47E-08;1.22E-137;4.74E-48;4.10E-30;1.94E-06;5.77E-07;4.30E-18;1.32E-16;6.25E-10;6.34E-165;1.73E-51;1.59E-39;5.78E-07
53.57896;99.72387;100.4112;99.6704;-0.002539835;-0.000277694;-0.001048318;3.35E-06;4.13E-20;1.90E-20;1.08E-05;1.73E-167;5.39E-47;1.32E-36;1.41E-05;2.25E-06;1.74E-14;2.94E-15;7.66E-08;2.15E-136;1.23E-47;7.27E-30;2.33E-06;6.90E-07;6.94E-18;1.98E-16;7.67E-10;1.53E-163;4.50E-51;3.26E-39;6.91E-07
56.4437;99.7355;100.423;99.66252;-0.001882354;3.14E-05;0.000358101;3.97E-06;7.33E-20;3.38E-20;1.21E-05;6.21E-166;1.40E-46;2.70E-36;1.61E-05;2.69E-06;2.62E-14;4.43E-15;9.06E-08;3.77E-135;3.20E-47;1.29E-29;2.78E-06;8.26E-07;1.12E-17;2.98E-16;9.41E-10;3.69E-162;1.17E-50;6.67E-39;8.27E-07
59.30845;99.73609;100.416;99.67501;-0.001847771;0.002400675;-0.002913153;4.70E-06;1.30E-19;5.99E-20;1.36E-05;2.23E-164;3.64E-46;5.52E-36;1.83E-05;3.22E-06;3.95E-14;6.66E-15;1.07E-07;6.61E-134;8.31E-47;2.29E-29;3.32E-06;9.88E-07;1.80E-17;4.49E-16;1.15E-09;8.89E-161;3.04E-50;1.37E-38;9.89E-07
62.17319;99.74705;100.409;99.67113;-0.004124183;0.001835545;-0.001023184;5.56E-06;2.31E-19;1.06E-19;1.52E-05;8.01E-163;9.45E-46;1.13E-35;2.08E-05;3.85E-06;5.94E-14;1.00E-14;1.27E-07;1.16E-132;2.16E-46;4.06E-29;3.97E-06;1.18E-06;2.91E-17;6.76E-16;1.42E-09;2.14E-159;7.90E-50;2.79E-38;1.18E-06
65.03794;99.75362;100.404;99.67755;-0.002314267;-0.000623711;-1.79E-05;6.58E-06;4.09E-19;1.88E-19;1.70E-05;2.88E-161;2.46E-45;2.31E-35;2.36E-05;4.60E-06;8.95E-14;1.51E-14;1.50E-07;2.03E-131;5.61E-46;7.19E-29;4.75E-06;1.41E-06;4.68E-17;1.02E-15;1.74E-09;5.17E-158;2.05E-49;5.72E-38;1.41E-06
67.90268;99.76222;100.407;99.67603;-0.001167759;-0.001618712;0.002163767;7.79E-06;7.25E-19;3.34E-19;1.91E-05;1.03E-159;6.38E-45;4.73E-35;2.69E-05;5.50E-06;1.35E-13;2.27E-14;1.78E-07;3.57E-130;1.46E-45;1.28E-28;5.68E-06;1.69E-06;7.55E-17;1.53E-15;2.13E-09;1.25E-156;5.33E-49;1.17E-37;1.69E-06
70.76743;99.76073;100.42;99.66715;-0.001289901;0.001301907;0.000935603;9.22E-06;1.29E-18;5.93E-19;2.14E-05;3.71E-158;1.66E-44;9.69E-35;3.07E-05;6.58E-06;2.03E-13;3.42E-14;2.10E-07;6.26E-129;3.79E-45;2.26E-28;6.79E-06;2.02E-06;1.22E-16;2.31E-15;2.62E-09;3.01E-155;1.39E-48;2.39E-37;2.02E-06
73.63217;99.77172;100.403;99.66764;-0.000123093;0.005553072;-0.001906517;1.09E-05;2.28E-18;1.05E-18;2.40E-05;1.33E-156;4.31E-44;1.98E-34;3.50E-05;7.88E-06;3.06E-13;5.16E-14;2.49E-07;1.10E-127;9.84E-45;4.01E-28;8.12E-06;2.42E-06;1.96E-16;3.47E-15;3.21E-09;7.26E-154;3.60E-48;4.90E-37;2.42E-06
76.49692;99.76489;100.3916;99.67338;-0.00027249;0.002934976;-0.001815345;1.29E-05;4.04E-18;1.86E-18;2.70E-05;4.78E-155;1.12E-43;4.06E-34;3.99E-05;9.42E-06;4.60E-13;7.76E-14;2.95E-07;1.93E-126;2.56E-44;7.12E-28;9.71E-06;2.89E-06;3.16E-16;5.23E-15;3.94E-09;1.75E-152;9.36E-48;1.00E-36;2.90E-06
79.36166;99.76815;100.388;99.68051;-0.000833662;0.001605161;-0.000680028;1.53E-05;7.17E-18;3.31E-18;3.02E-05;1.72E-153;2.91E-43;8.31E-34;4.55E-05;1.13E-05;6.93E-13;1.17E-13;3.49E-07;3.38E-125;6.65E-44;1.26E-27;1.16E-05;3.46E-06;5.10E-16;7.88E-15;4.83E-09;4.22E-151;2.43E-47;2.05E-36;3.46E-06
82.22641;99.77467;100.384;99.67535;0.000234783;0.001002395;0.000717018;1.81E-05;1.27E-17;5.86E-18;3.39E-05;6.16E-152;7.56E-43;1.70E-33;5.20E-05;1.35E-05;1.04E-12;1.76E-13;4.13E-07;5.93E-124;1.73E-43;2.24E-27;1.39E-05;4.14E-06;8.22E-16;1.19E-14;5.93E-09;1.02E-149;6.32E-47;4.20E-36;4.14E-06
85.09115;99.764;100.376;99.67824;0.001227364;0.001958877;0.000952089;2.14E-05;2.26E-17;1.04E-17;3.80E-05;2.21E-150;1.96E-42;3.48E-33;5.94E-05;1.61E-05;1.57E-12;2.65E-13;4.89E-07;1.04E-122;4.49E-43;3.97E-27;1.66E-05;4.95E-06;1.32E-15;1.79E-14;7.28E-09;2.46E-148;1.64E-46;8.60E-36;4.96E-06
87.9559;99.76429;100.373;99.67172;-0.000173491;0.001498687;0.002235105;2.53E-05;4.00E-17;1.84E-17;4.26E-05;7.95E-149;5.10E-42;7.12E-33;6.80E-05;1.93E-05;2.36E-12;3.99E-13;5.78E-07;1.83E-121;1.17E-42;7.04E-27;1.99E-05;5.92E-06;2.13E-15;2.69E-14;8.93E-09;5.93E-147;4.27E-46;1.76E-35;5.93E-06
90.82064;99.76429;100.371;99.66551;-4.94E-05;0.000767615;-2.58E-05;3.00E-05;7.10E-17;3.27E-17;4.78E-05;2.85E-147;1.33E-41;1.46E-32;7.78E-05;2.31E-05;3.56E-12;6.01E-13;6.85E-07;3.21E-120;3.03E-42;1.25E-26;2.37E-05;7.08E-06;3.44E-15;4.05E-14;1.10E-08;1.43E-145;1.11E-45;3.60E-35;7.09E-06
93.68539;99.76192;100.37;99.66667;0.000284208;-0.00257124;0.001274598;3.55E-05;1.26E-16;5.80E-17;5.36E-05;1.02E-145;3.45E-41;2.98E-32;8.91E-05;2.76E-05;5.36E-12;9.05E-13;8.10E-07;5.62E-119;7.87E-42;2.21E-26;2.83874E-05;8.47E-06;5.55E-15;6.10E-14;1.34E-08;3.45E-144;2.88E-45;7.37E-35;8.48E-06
96.55013;99.76518;100.38;99.66262;-0.000671681;-0.002094712;0.001540062;4.20E-05;2.23E-16;1.03E-16;6.01E-05;3.68E-144;8.96E-41;6.10E-32;0.000102128;3.30E-05;8.07E-12;1.36E-12;9.59E-07;9.87E-118;2.05E-41;3.93E-26;3.39429E-05;1.01E-05;8.94E-15;9.18E-14;1.65E-08;8.32E-143;7.48E-45;1.51E-34;1.01E-05
99.41488;99.7648;100.384;99.6567;0.000617054;-0.001356325;0.001357568;4.97E-05;3.96E-16;1.82E-16;6.74E-05;1.32E-142;2.33E-40;1.25E-31;0.000117137;3.95E-05;1.22E-11;2.05E-12;1.13E-06;1.73E-116;5.32E-41;6.96E-26;4.05856E-05;1.21E-05;1.44E-14;1.38E-13;2.02E-08;2.01E-141;1.94E-44;3.09E-34;1.21E-05
102.28;99.76553;100.389;99.65703;-0.000672269;-0.001693265;0.000338702;5.88E-05;7.02E-16;3.24E-16;7.56E-05;4.74E-141;6.05E-40;2.56E-31;0.000134447;4.72E-05;1.83E-11;3.09E-12;1.34E-06;3.04E-115;1.38E-40;1.24E-25;4.85284E-05;1.45E-05;2.32E-14;2.08E-13;2.48E-08;4.84E-140;5.05E-44;6.32E-34;1.45E-05
105.144;99.76518;100.389;99.64816;-0.000222776;0.000423269;0.003055153;6.96E-05;1.25E-15;5.74E-16;8.48E-05;1.70E-139;1.57E-39;5.23E-31;0.000154424;5.64E-05;2.76E-11;4.65E-12;1.59E-06;5.33E-114;3.59E-40;2.19E-25;5.80255E-05;1.73E-05;3.75E-14;3.13E-13;3.05E-08;1.17E-138;1.31E-43;1.29E-33;1.74E-05
108.009;99.76429;100.39;99.64346;-3.32E-05;0.004092254;0.003390409;8.24E-05;2.21E-15;1.02E-15;9.51E-05;6.12E-138;4.08E-39;1.07E-30;0.000177498;6.75E-05;4.15E-11;7.00E-12;1.88E-06;9.35E-113;9.33E-40;3.88E-25;6.93812E-05;2.07E-05;6.04E-14;4.72E-13;3.74E-08;2.81E-137;3.41E-43;2.65E-33;2.08E-05
110.874;99.76578;100.365;99.63054;0.001059154;0.005065872;0.001855325;9.76E-05;3.92E-15;1.80472E-15;1.07E-04;2.20E-136;1.06E-38;2.19E-30;0.000204166;8.07E-05;6.25E-11;1.05E-11;2.23E-06;1.64E-111;2.42E-39;6.89E-25;8.2959E-05;2.48E-05;9.73E-14;7.10E-13;4.59E-08;6.79E-136;8.87E-43;5.42E-33;2.48E-05
113.7386;99.76161;100.359;99.63055;0.000246134;0.001582834;-0.000486039;0.000115454;6.95E-15;3.20065E-15;1.20E-04;7.89E-135;2.76E-38;4.49E-30;0.00023501;9.66E-05;9.41E-11;1.59E-11;2.64E-06;2.88E-110;6.30E-39;1.22E-24;9.91935E-05;2.97E-05;1.57E-13;1.07E-12;5.63E-08;1.64E-134;2.30E-42;1.11E-32;2.97E-05
116.603;99.76471;100.354;99.63185;0.000153932;0.004386428;0.000359127;0.000136641;1.23E-14;5.67632E-15;1.34E-04;2.83E-133;7.16E-38;9.18E-30;0.000270711;1.15E-04;1.42E-10;2.39E-11;3.12E-06;5.05E-109;1.64E-38;2.17E-24;0.000118605;3.55E-05;2.53E-13;1.61E-12;6.91E-08;3.95E-133;5.99E-42;2.27E-32;3.55E-05
119.468;99.76104;100.337;99.62826;0.00138532;0.004714583;0.000207686;0.000161716;2.18E-14;1.00669E-14;1.50E-04;1.02E-131;1.86E-37;1.88E-29;0.00031206;1.38E-04;2.13E-10;3.60E-11;3.69E-06;8.86E-108;4.25E-38;3.84E-24;0.000141813;4.24E-05;4.08E-13;2.42E-12;8.48E-08;9.53E-132;1.56E-41;4.64E-32;4.25E-05
122.333;99.75865;100.325;99.62891;0.001813063;0.003173202;-0.002121741;0.00019139;3.87E-14;1.78535E-14;1.69E-04;3.65E-130;4.84E-37;3.85E-29;0.000359984;1.65E-04;3.21E-10;5.42E-11;4.37E-06;1.55E-106;1.10E-37;6.82E-24;0.000169562;5.07E-05;6.57E-13;3.65E-12;1.04E-07;2.30E-130;4.04E-41;9.50E-32;5.08E-05
125.198;99.75094;100.32;99.63842;0.000926152;0.001518022;-0.000581093;0.000226508;6.87E-14;3.1663E-14;1.89E-04;1.31E-128;1.26E-36;7.87E-29;0.000415566;0.000197566;4.83E-10;8.16E-11;5.17E-06;2.73E-105;2.87E-37;1.21E-23;0.000202739;6.07E-05;1.06E-12;5.50E-12;1.28E-07;5.54E-129;1.05E-40;1.95E-31;6.08E-05
128.062;99.7539;100.314;99.63676;-0.001346367;0.001726875;0.00247933;0.000268068;1.22E-13;5.61541E-14;2.12E-04;4.71E-127;3.27E-36;1.61E-28;0.000480073;0.000236282;7.28E-10;1.23E-10;6.12E-06;4.78E-104;7.46E-37;2.14E-23;0.000242403;7.26E-05;1.71E-12;8.28E-12;1.57E-07;1.34E-127;2.73E-40;3.98E-31;7.27E-05
130.927;99.75361;100.31;99.62405;0.001225902;0.004161691;0.00318953;0.000317249;2.16E-13;9.95885E-14;2.38E-04;1.69E-125;8.49E-36;3.30E-28;0.000554986;0.000282578;1.10E-09;1.85E-10;7.24E-06;8.39E-103;1.94E-36;3.80E-23;0.000289824;8.68E-05;2.75E-12;1.25E-11;1.92E-07;3.22E-126;7.09E-40;8.15E-31;8.70E-05
133.792;99.75059;100.294;99.62204;0.002533312;0.003536655;0.003713359;0.000375449;3.83E-13;1.76619E-13;2.67E-04;6.07E-124;2.20E-35;6.75E-28;0.000642041;0.000337938;1.65E-09;2.78E-10;8.57E-06;1.47E-101;5.04E-36;6.74E-23;0.000346514;0.000103806;4.44E-12;1.88E-11;2.36E-07;7.78E-125;1.84E-39;1.67E-30;0.000104042
136.657;99.73705;100.287;99.60409;0.002617597;0.002802799;0.002482774;0.000444319;6.80E-13;3.13232E-13;2.99E-04;2.18E-122;5.73E-35;1.38E-27;0.000743266;0.000404133;2.48E-09;4.19E-10;1.01E-05;2.58E-100;1.31E-35;1.20E-22;0.000414284;0.00012415;7.15E-12;2.83E-11;2.90E-07;1.88E-123;4.79E-39;3.41E-30;0.00012444
139.521;99.73609;100.283;99.60465;0.001838554;0.00625136;-0.001063181;0.000525814;1.21E-12;5.55515E-13;3.35E-04;7.82E-121;1.49E-34;2.83E-27;0.00086104;0.000483278;3.74E-09;6.31E-10;1.20E-05;4.53E-99;3.40E-35;2.12E-22;0.000495293;0.00014848;1.15E-11;4.25E-11;3.55E-07;4.52E-122;1.24E-38;6.98E-30;0.000148835
142.386;99.73312;100.245;99.60785;0.000620341;0.006508556;0.00147013;0.000622244;2.14E-12;9.85198E-13;3.76E-04;2.81E-119;3.87E-34;5.78E-27;0.00099815;0.000577901;5.63E-09;9.51E-10;1.42E-05;7.95E-98;8.84E-35;3.76E-22;0.000592122;0.000177573;1.86E-11;6.41E-11;4.36E-07;1.09E-120;3.23E-38;1.43E-29;0.000178009
145.2508;99.72716;100.244;99.6012;0.001928634;0.002359093;0.003700329;0.00073634;3.79E-12;1.74724E-12;4.22E-04;1.01E-117;1.01E-33;1.18E-26;0.00115786;0.000691018;8.48E-09;1.43E-09;1.68E-05;1.39E-96;2.30E-34;6.67E-22;0.000707852;0.000212363;3.00E-11;9.64E-11;5.35E-07;2.63E-119;8.40E-38;2.93E-29;0.000212898
148.116;99.72362;100.242;99.58804;0.002280154;0.004459085;0.002954683;0.000871333;6.72E-12;3.09871E-12;4.73E-04;3.62E-116;2.61E-33;2.42E-26;0.001343998;0.00082623;1.28E-08;2.16E-09;1.99E-05;2.45E-95;5.97E-34;1.18E-21;0.000846157;0.000253961;4.83E-11;1.45E-10;6.56E-07;6.35E-118;2.18E-37;5.99E-29;0.000254618
150.98;99.71383;100.2199;99.58347;0.002160857;0.007205502;0.00171318;0.001031039;1.19E-11;5.49553E-12;5.30E-04;1.30E-114;6.79E-33;4.96E-26;0.001561052;0.000987835;1.92E-08;3.25E-09;2.36E-05;4.29E-94;1.55E-33;2.10E-21;0.001011423;0.000303699;7.78E-11;2.19E-10;8.05E-07;1.53E-116;5.67E-37;1.23E-28;0.000304504
153.845;99.7168;100.199;99.57596;0.000802183;0.004359202;0.002689657;0.001219969;2.11E-11;9.74626E-12;5.94E-04;4.67E-113;1.76E-32;1.01E-25;0.00181428;0.001180954;2.90E-08;4.89E-09;2.79E-05;7.53E-93;4.03E-33;3.72E-21;0.001208879;0.000363164;1.25E-10;3.29E-10;9.88E-07;3.69E-115;1.47E-36;2.51E-28;0.000364152
156.71;99.71198;100.195;99.56809;0.002659412;0.002684239;0.001803257;0.001443452;3.75E-11;1.72849E-11;6.66E-04;1.68E-111;4.58E-32;2.08E-25;0.002109856;0.001411694;4.36E-08;7.36E-09;3.30E-05;1.32E-91;1.05E-32;6.60E-21;0.001444755;0.000434253;2.02E-10;4.96E-10;1.21E-06;8.91E-114;3.83E-36;5.13E-28;0.000435466
159.575;99.70284;100.189;99.56515;0.003337913;0.004368717;0.000736566;0.001707779;6.65E-11;3.06546E-11;7.47E-04;6.02E-110;1.19E-31;4.25E-25;0.002455012;0.001687326;6.56E-08;1.11E-08;3.91E-05;2.32E-90;2.72E-32;1.17E-20;0.001726471;0.000519229;3.26E-10;7.46E-10;1.49E-06;2.15E-112;9.95E-36;1.05E-27;0.000520718
162.439;99.69101;100.172;99.56319;0.005292101;0.007694081;0.001387081;0.002020379;1.18E-10;5.43656E-11;8.38E-04;2.16E-108;3.09E-31;8.70E-25;0.002858233;0.002016503;9.88E-08;1.67E-08;4.62E-05;4.07E-89;7.07E-32;2.08E-20;0.002062858;0.000620795;5.26E-10;1.12E-09;1.83E-06;5.18E-111;2.59E-35;2.15E-27;0.000622622
165.304;99.67791;100.153;99.55632;0.005211765;0.005267406;0.002727885;0.002390011;2.09E-10;9.64167E-11;9.39E-04;7.76E-107;8.04E-31;1.78E-24;0.003329463;0.002409509;1.49E-07;2.51E-08;5.47E-05;7.14E-88;1.84E-31;3.68E-20;0.002464409;0.00074217;8.47E-10;1.69E-09;2.24E-06;1.25E-109;6.72E-35;4.40E-27;0.000744413
168.169;99.66039;100.137;99.55077;0.004752883;0.003916351;0.004455339;0.002827012;3.71E-10;1.70994E-10;1.05E-03;2.79E-105;2.09E-30;3.64E-24;0.003880363;0.002878558;2.24E-07;3.78E-08;6.48E-05;1.25E-86;4.77E-31;6.53E-20;0.002943589;0.000887196;1.37E-09;2.55E-09;2.75E-06;3.02E-108;1.75E-34;9.01E-27;0.000889949
171.0335;99.65122;100.13;99.53474;0.003324503;0.00651433;0.004929658;0.003343551;6.58E-10;3.03256E-10;1.18E-03;1.00E-103;5.43E-30;7.46E-24;0.004524589;0.003438123;3.37E-07;5.69E-08;7.67E-05;2.20E-85;1.24E-30;1.16E-19;0.003515173;0.001060444;2.20E-09;3.84E-09;3.37E-06;7.27E-107;4.54E-34;1.84E-26;0.001063824
173.898;99.64139;100.097;99.52427;0.006543179;0.0117009;0.005271875;0.003953966;1.17E-09;5.37822E-10;1.32E-03;3.59E-102;1.41E-29;1.53E-23;0.005278142;0.004105341;5.08E-07;8.57E-08;9.07E-05;3.85E-84;3.22E-30;2.05E-19;0.004196657;0.001267359;3.55E-09;5.78E-09;4.14E-06;1.75E-105;1.18E-33;3.77E-26;0.001271508
176.763;99.61666;100.067;99.50565;0.008994847;0.0120521;0.003881867;0.004675111;2.07E-09;9.53821E-10;1.48E-03;1.29E-100;3.67E-29;3.12E-23;0.006159738;0.004900438;7.65E-07;1.2907E-07;1.07E-04;6.76E-83;8.37E-30;3.64E-19;0.005008704;0.001514409;5.72E-09;8.70E-09;5.08E-06;4.23E-104;3.06E-33;7.72E-26;0.001519503
179.628;99.58647;100.0323;99.49552;0.01017869;0.0113284;0.002308992;0.005526799;3.67E-09;1.69159E-09;1.66E-03;4.63E-99;9.52E-29;6.39E-23;0.007191276;0.005847253;1.15E-06;1.9434E-07;1.27E-04;1.19E-81;2.18E-29;6.46E-19;0.005975675;0.001809283;9.22E-09;1.31E-08;6.23E-06;1.02E-102;7.96E-33;1.58E-25;0.001815538
182.492;99.56408;99.99629;99.49289;0.008680665;0.0131795;0.002643006;0.00653226;6.51E-09;3.00002E-09;1.87E-03;1.66E-97;2.47E-28;1.31E-22;0.008398321;0.00697377;1.73E-06;2.92615E-07;1.50E-04;2.08E-80;5.65E-29;1.15E-18;0.007126191;0.00216109;1.49E-08;1.97E-08;7.65E-06;2.46E-101;2.07E-32;3.23E-25;0.002168773
185.357;99.52894;99.96584;99.48327;0.0125915;0.0136776;0.005334346;0.007718721;1.15E-08;5.32051E-09;2.09E-03;5.97E-96;6.43E-28;2.68E-22;0.009810713;0.008312745;2.61E-06;4.40586E-07;1.78E-04;3.65E-79;1.47E-28;2.03E-18;0.008493787;0.002580621;2.40E-08;2.97E-08;9.38E-06;5.94E-100;5.37E-32;6.62E-25;0.00259006
188.222;99.49842;99.9261;99.46789;0.0128577;0.0158823;0.006810699;0.009117997;2.05E-08;9.43585E-09;2.35E-03;2.15E-94;1.67E-27;5.48E-22;0.0114632;0.009902322;3.93E-06;6.63384E-07;2.11E-04;6.41E-78;3.82E-28;3.60E-18;0.0101176;0.00308062;3.86E-08;4.47E-08;1.15E-05;1.43E-98;1.40E-31;1.35E-24;0.003092219
191.087;99.45519;99.87939;99.44674;0.0151519;0.0183665;0.005773295;0.0107672;3.63E-08;1.67344E-08;2.63E-03;7.70E-93;4.34E-27;1.12E-21;0.0133962;0.0117867;5.92E-06;9.98849E-07;2.49E-04;1.12E-76;9.92E-28;6.39E-18;0.0120429;0.003676112;6.23E-08;6.73E-08;1.41E-05;3.46E-97;3.63E-31;2.77E-24;0.003690372
193.951;99.41309;99.81743;99.43339;0.0158574;0.0230567;0.003966393;0.0127095;6.44E-08;2.96782E-08;2.95E-03;2.77E-91;1.13E-26;2.30E-21;0.0156564;0.01401681;8.91E-06;1.50395E-06;2.95E-04;1.97E-75;2.58E-27;1.13E-17;0.0143223;0.004384743;1.00E-07;1.01E-07;1.73E-05;8.33E-96;9.43E-31;5.67E-24;0.004402283
196.816;99.36084;99.75396;99.41773;0.0216278;0.0267523;0.005512883;0.01499504;1.14E-07;5.26341E-08;3.30E-03;9.93E-90;2.93E-26;4.70E-21;0.0182982;0.0166507;1.34E-05;2.26448E-06;3.49E-04;3.46E-74;6.70E-27;2.01E-17;0.0170156;0.005227188;1.62E-07;1.53E-07;2.13E-05;2.01E-94;2.45E-30;1.16E-23;0.005248778
199.681;99.2976;99.66894;99.4054;0.0247066;0.0305313;0.008669395;0.0176815;2.03E-07;9.33459E-08;3.70E-03;3.57E-88;7.62E-26;9.61E-21;0.0213838;0.0197543;2.02E-05;3.40959E-06;4.13E-04;6.07E-73;1.74E-26;3.56E-17;0.0201911;0.006227537;2.61E-07;2.30E-07;2.61E-05;4.85E-93;6.37E-30;2.38E-23;0.006254134
202.5457;99.22366;99.58038;99.37265;0.0288058;0.0313087;0.0104833;0.0208355;3.59E-07;1.65548E-07;4.15E-03;1.28E-86;1.98E-25;1.97E-20;0.024985;0.0234009;3.04E-05;5.13377E-06;4.89E-04;1.07E-71;4.52E-26;6.32E-17;0.0239255;0.007413749;4.20E-07;3.46E-07;3.20E-05;1.17E-91;1.65E-29;4.86E-23;0.007446549
205.41;99.1298;99.4859;99.34588;0.0319256;0.0333422;0.0100173;0.02453292;6.37E-07;2.93598E-07;4.65E-03;4.60E-85;5.14E-25;4.03E-20;0.0291834;0.0276717;4.58E-05;7.72981E-06;5.79E-04;1.87E-70;1.17E-25;1.12E-16;0.0283038;0.008818031;6.78E-07;5.21E-07;3.93E-05;2.82E-90;4.30E-29;9.95E-23;0.008858537
208.275;99.0402;99.39011;99.31377;0.0383074;0.0420683;0.0110075;0.02886012;1.13E-06;5.20692E-07;5.21E-03;1.65E-83;1.34E-24;8.24E-20;0.0340718;0.0326541;6.89496E-05;1.16386E-05;6.85E-04;3.28E-69;3.05E-25;1.99E-16;0.0334195;0.0104772;1.09E-06;7.84E-07;4.82E-05;6.80E-89;1.12E-28;2.04E-22;0.0105274
211.14;98.92174;99.26047;99.2775;0.0438694;0.049053;0.0140949;0.03391428;2.00E-06;9.23441E-07;5.84E-03;5.93E-82;3.47E-24;1.69E-19;0.0397549;0.0384408;0.000103806;1.75239E-05;8.10E-04;5.75E-68;7.93E-25;3.53E-16;0.0393724;0.0124331;1.76E-06;1.18E-06;5.92E-05;1.64E-87;2.90E-28;4.17E-22;0.0124953
214.005;98.7934;99.11875;99.23692;0.0493915;0.053957;0.01552827;0.0398039;3.55E-06;1.63771E-06;6.54E-03;2.13E-80;9.02E-24;3.45E-19;0.0463492;0.0451265;0.000156276;2.63852E-05;9.59E-04;1.01E-66;2.06E-24;6.25E-16;0.0462679;0.0147325;2.84E-06;1.78E-06;7.26E-05;3.96E-86;7.54E-28;8.53E-22;0.0148098
216.869;98.65147;98.95977;99.18814;0.0560708;0.0586464;0.017182;0.0466482;6.30E-06;2.90446E-06;7.33E-03;7.64E-79;2.34E-23;7.07E-19;0.0539838;0.0528041;0.00023525;3.97271E-05;1.13E-03;1.77E-65;5.36E-24;1.11E-15;0.0542135;0.0174271;4.58E-06;2.68E-06;8.91E-05;9.55E-85;1.96E-27;1.75E-21;0.0175234
219.734;98.48999;98.7731;99.1431;0.0660826;0.071313;0.0188974;0.054577;1.12E-05;5.15102E-06;8.21E-03;2.74E-77;6.09E-23;1.45E-18;0.0627993;0.0615595;0.000354092;5.98148E-05;1.34E-03;3.11E-64;1.39E-23;1.97E-15;0.0633155;0.0205729;7.38E-06;4.03085E-06;1.09E-04;2.30E-83;5.09E-27;3.57E-21;0.0206936
222.599;98.27734;98.56501;99.081;0.0783929;0.0794697;0.0228109;0.0637279;1.98E-05;9.13522E-06;9.19E-03;9.85E-76;1.58E-22;2.96E-18;0.07294677;0.0714641;0.000532878;9.00583E-05;1.59E-03;5.45E-63;3.62E-23;3.49E-15;0.07367494;0.0242293;1.18895E-05;6.06917E-06;1.34E-04;5.55E-82;1.32E-26;7.31E-21;0.0243815
225.464;98.04337;98.32692;99.01521;0.0890508;0.0882139;0.0286327;0.0742434;3.52E-05;1.62011E-05;1.03E-02;3.54E-74;4.11E-22;6.06E-18;0.084585;0.0825669;0.000801731;0.00013559;1.88E-03;9.56E-62;9.40E-23;6.19E-15;0.0853826;0.0284578;1.9165E-05;9.13822E-06;1.65E-04;1.34E-80;3.44E-26;1.50E-20;0.0286507
228.3284;97.76868;98.06534;98.91865;0.102801;0.0969248;0.0346744;0.0862655;6.23E-05;2.8732E-05;1.15E-02;1.27E-72;1.07E-21;1.24E-17;0.0978767;0.0948835;0.001205756;0.000204136;2.22E-03;1.68E-60;2.44E-22;1.10E-14;0.0985154;0.0333189;3.08921E-05;1.37592E-05;2.02E-04;3.23E-79;8.93E-26;3.06E-20;0.03356547
231.193;97.46614;97.78251;98.81687;0.118108;0.115019;0.0383395;0.0999273;1.11E-04;5.09545E-05;1.29E-02;4.56E-71;2.78E-21;2.54E-17;0.112983;0.108386;0.001812328;0.000307317;2.63E-03;2.94E-59;6.35E-22;1.95E-14;0.113134;0.0388691;4.97938E-05;2.07168E-05;2.48E-04;7.79E-78;2.32E-25;6.27E-20;0.0391874
234.058;97.10227;97.41601;98.70769;0.142327;0.134085;0.0480007;0.1153402;1.96E-04;9.03627E-05;1.44E-02;1.64E-69;7.22E-21;5.19E-17;0.130056;0.122991;0.002721654;0.000462616;3.11E-03;5.16E-58;1.65E-21;3.45E-14;0.129283;0.0451567;8.02572E-05;3.11923E-05;3.04E-04;1.88E-76;6.03E-25;1.28E-19;0.0455722
236.923;96.68087;97.03067;98.55149;0.162598;0.150354;0.05562;0.132575;3.48E-04;0.000160244;1.61E-02;5.88E-68;1.88E-20;1.06E-16;0.149226;0.138546;0.004081867;0.000696313;3.68E-03;9.06E-57;4.28E-21;6.12E-14;0.146999;0.0522165;0.000129349;4.69646E-05;3.73E-04;4.53E-75;1.57E-24;2.63E-19;0.0527658
239.787;96.19204;96.58271;98.39232;0.181585;0.166411;0.0606725;0.15163;6.16E-04;0.000284146;1.81E-02;2.11E-66;4.87E-20;2.17E-16;0.170586;0.154817;0.006109859;0.001047878;4.34E-03;1.59E-55;1.11E-20;1.09E-13;0.16632;0.0600637;0.000208447;7.07109E-05;4.58E-04;1.09E-73;4.07E-24;5.38E-19;0.0608005
242.652;95.65484;96.07827;98.2127;0.200657;0.184123;0.0676149;0.172384;0.001092083;0.000503792;2.02E-02;7.58E-65;1.27E-19;4.45E-16;0.194167;0.17147;0.009118732;0.00157653;5.14E-03;2.79E-54;2.89E-20;1.92E-13;0.187301;0.0686878;0.000335856;0.000106462;5.61E-04;2.64E-72;1.06E-23;1.10E-18;0.0696915
245.517;95.05568;95.54659;98.00484;0.226706;0.207566;0.0816798;0.194509;0.001934353;0.000893033;2.26E-02;2.72E-63;3.29E-19;9.11E-16;0.2199;0.188047;0.0135506;0.002370938;6.07E-03;4.89E-53;7.52E-20;3.41E-13;0.210038;0.0780466;0.000540988;0.000160282;6.89E-04;6.36E-71;2.75E-23;2.25E-18;0.0794366
248.382;94.38247;94.92206;97.75397;0.254822;0.243054;0.0949718;0.217335;0.003422899;0.001582421;2.52E-02;9.78E-62;8.55E-19;1.86E-15;0.24755;0.203928;0.020009;0.003563516;7.17E-03;8.58E-52;1.95E-19;6.05E-13;0.23467;0.0880615;0.000871014;0.000241299;8.45E-04;1.53E-69;7.14E-23;4.61E-18;0.0900187
251.246;93.61822;94.20622;97.48277;0.283836;0.270991;0.107655;0.239621;0.006046511;0.002802116;2.82E-02;3.51E-60;2.22E-18;3.82E-15;0.276624;0.218272;0.0292751;0.005351144;8.47E-03;1.51E-50;5.08E-19;1.07E-12;0.261367;0.09861382;0.001401345;0.00036324;1.04E-03;3.70E-68;1.86E-22;9.43E-18;0.101415
254.111;92.79493;93.39098;97.14847;0.306903;0.300483;0.118104;0.259234;0.0106488;0.004956101;3.14E-02;1.26E-58;5.77E-18;7.81E-15;0.306267;0.229949;0.0422756;0.008024743;1.00E-02;2.64E-49;1.32E-18;1.90E-12;0.290247;0.109545;0.00225194;0.000546744;1.27E-03;8.93E-67;4.82E-22;1.93E-17;0.113614
256.976;91.87498;92.49638;96.80793;0.334239;0.33136;0.131247;0.27281;0.0186547;0.008747666;3.51E-02;4.53E-57;1.50E-17;1.60E-14;0.335275;0.237469;0.0599515;0.01201;1.18E-02;4.64E-48;3.43E-18;3.38E-12;0.321229;0.120656;0.003612043;0.000822811;1.56E-03;2.15E-65;1.25E-21;3.95E-17;0.12665
259.8406;90.8986;91.52348;96.40529;0.359056;0.362633;0.149165;0.27576;0.0323792;0.0153838;3.91E-02;1.63E-55;3.90E-17;3.27E-14;0.362618;0.238998;0.0829769;0.0179209;1.39E-02;8.13E-47;8.90E-18;5.99E-12;0.35381;0.131716;0.005776292;0.00123796;1.91E-03;5.20E-64;3.26E-21;8.08E-17;0.140642
262.705;89.84211;90.46747;95.95295;0.3844804;0.395124;0.165186;0.263383;0.0553188;0.0268831;4.36E-02;5.84E-54;1.01E-16;6.69E-14;0.389147;0.232596;0.111327;0.0266231;1.64E-02;1.43E-45;2.31E-17;1.06E-11;0.386947;0.142461;0.009193533;0.001861859;2.34E-03;1.25E-62;8.46E-21;1.65E-16;0.15586
265.57;88.72732;89.29094;95.46894;0.394355;0.433328;0.183844;0.233647;0.0920443;0.0464691;4.85E-02;2.10E-52;2.63E-16;1.37E-13;0.420665;0.216852;0.143841;0.0392965;1.93E-02;2.50E-44;6.01E-17;1.88E-11;0.419307;0.152603;0.0145237;0.002798586;2.87E-03;3.02E-61;2.20E-20;3.39E-16;0.172798
268.435;87.55559;88.0189;94.91591;0.457888;0.469234;0.203361;0.190215;0.146784;0.0788689;5.40E-02;7.52E-51;6.84E-16;2.80E-13;0.469833;0.19186;0.178049;0.0574638;2.27E-02;4.39E-43;1.56E-16;3.34E-11;0.450106;0.161834;0.022681;0.004202974;3.52E-03;7.29E-60;5.71E-20;6.93E-16;0.192238
271.3;86.15666;86.63821;94.31782;0.60598;0.502188;0.22106;0.141985;0.219519;0.129963;6.00E-02;2.70E-49;1.78E-15;5.74E-13;0.551452;0.159975;0.210498;0.082926;2.67E-02;7.71E-42;4.06E-16;5.92E-11;0.480125;0.169822;0.0348078;0.006303995;4.31E-03;1.76E-58;1.48E-19;1.42E-15;0.215246
274.164;84.22347;85.19005;93.66548;0.774079;0.529684;0.241888;0.0982189;0.300223;0.204757;6.66E-02;9.70E-48;4.62E-15;1.17E-12;0.669812;0.125477;0.237431;0.117506;3.14E-02;1.35E-40;1.05E-15;1.05E-10;0.511797;0.176215;0.0520761;0.009437107;5.28E-03;4.24E-57;3.86E-19;2.90E-15;0.24301
277.029;81.90467;83.63134;92.94709;0.881041;0.568635;0.282392;0.0640492;0.366842;0.30312;7.39E-02;3.48E-46;1.20E-14;2.40E-12;0.807904;0.09296517;0.255366;0.162514;3.68E-02;2.37E-39;2.74E-15;1.86E-10;0.547646;0.18064;0.0752058;0.014087;6.47E-03;1.02E-55;1.00E-18;5.94E-15;0.276399
279.894;79.30618;81.97672;92.09451;0.9534595;0.60033;0.336911;0.04005117;3.94E-01;0.415706;8.19E-02;1.25E-44;3.12E-14;4.92E-12;0.931843;0.0656322;0.261279;0.21796;4.31E-02;4.16E-38;7.12E-15;3.30E-10;0.587958;0.1827064;0.103738;0.0209392;7.91E-03;2.47E-54;2.61E-18;1.22E-14;0.315295
282.759;76.53089;80.2022;91.05356;1.00391;0.637567;0.390628;0.0243441;3.70E-01;0.525716;9.06E-02;4.49E-43;8.10E-14;1.01E-11;1.01114;0.0446225;0.252718;0.281815;5.04E-02;7.30E-37;1.85E-14;5.86E-10;0.629508;0.18203;0.135476;0.03093162;9.67E-03;5.95E-53;6.77E-18;2.49E-14;0.358112
285.6233;73.6246;78.36429;89.90975;1.03284;0.667681;0.436894;0.0145197;3.06E-01;0.617319;1.00E-01;1.61E-41;2.10E-13;2.06E-11;1.03792;0.0295113;0.228612;0.349883;5.87E-02;1.28E-35;4.81E-14;1.04E-09;0.666725;0.178273;0.166739;0.0452834;1.18E-02;1.44E-51;1.76E-17;5.09E-14;0.402115
288.488;70.66377;76.41044;88.61342;1.03123;0.698588;0.477271;0.008550329;2.25E-01;0.68172;1.10E-01;5.79E-40;5.47E-13;4.22E-11;1.02615;0.0191415;0.191027;0.416671;6.83E-02;2.25E-34;1.25E-13;1.84E-09;0.695149;0.171213;0.193567;0.0654518;1.44E-02;3.46E-50;4.57E-17;1.04E-13;0.44466
291.353;67.73102;74.40378;87.20555;0.996026;0.7164;0.511104;0.004990598;1.52E-01;0.711678;1.22E-01;2.08E-38;1.42E-12;8.63E-11;0.989929;0.0122508;0.146266;0.476854;7.92E-02;3.94E-33;3.25E-13;3.27E-09;0.714616;0.160838;0.213013;0.0929409;1.76E-02;8.35E-49;1.19E-16;2.13E-13;0.484383
294.218;64.94424;72.35719;85.71714;0.909081;0.730234;0.545865;0.002894207;9.54E-02;0.680052;1.34E-01;7.47E-37;3.69E-12;1.77E-10;0.912144;0.007769928;0.102849;0.525997;9.16E-02;6.92E-32;8.44E-13;5.80E-09;0.728256;0.147432;0.223566;0.128883;2.14E-02;2.01E-47;3.09E-16;4.37E-13;0.521297
297.082;62.49951;70.23322;84.11737;0.70488;0.728226;0.575961;0.001670321;5.75E-02;0.520654;1.47E-01;2.68E-35;9.60E-12;3.62E-10;0.726603;0.004897735;6.73E-02;0.558115;1.06E-01;1.21E-30;2.19E-12;1.03E-08;0.735879;0.131618;0.224723;0.173392;2.60E-02;4.86E-46;8.02E-16;8.94E-13;0.555765
299.947;60.65051;68.17842;82.44531;0.416883;0.695258;0.595429;0.000960328;3.37E-02;0.256991;1.61E-01;9.63E-34;2.49E-11;7.40E-10;0.452384;0.003074269;4.17E-02;0.55482;1.21E-01;2.13E-29;5.70E-12;1.82E-08;0.72076;0.114322;0.216445;0.224908;3.16E-02;1.17E-44;2.08E-15;1.83E-12;0.587252
302.812;59.81919;66.23273;80.72174;0.242969;0.627534;0.616121;0.000550439;1.94E-02;0.0822493;1.76E-01;3.46E-32;6.48E-11;1.51E-09;0.277844;0.001924057;2.49E-02;0.465396;1.38E-01;3.74E-28;1.48E-11;3.23E-08;0.630673;0.0966247;0.199082;0.279963;3.82E-02;2.83E-43;5.41E-15;3.74E-12;0.61388
305.677;59.11083;64.56813;78.93792;0.241986;0.473076;0.634259;0.000314704;1.11E-02;0.0214081;1.91E-01;1.24E-30;1.68E-10;3.10E-09;0.224235;0.001201696;1.45E-02;0.265055;1.57E-01;6.55E-27;3.85E-11;5.74E-08;0.438202;0.0795734;0.173842;0.333733;4.61E-02;6.82E-42;1.41E-14;7.66E-12;0.63325
308.541;58.36422;63.32255;77.1158;0.265067;0.273727;0.642055;0.000179549;6.31E-03;0.005229966;2.08E-01;4.46E-29;4.37E-10;6.34E-09;0.219829;0.000749416;8.35E-03;0.0941988;1.78E-01;1.15E-25;9.99E-11;1.02E-07;0.281323;0.06399976;0.143319;0.38117;5.54E-02;1.64E-40;3.66E-14;1.57E-11;0.643921
311.406;57.59484;62.80398;75.26704;0.270855;0.173617;0.642204;0.000102256;3.57E-03;0.001256513;2.26E-01;1.60E-27;1.14E-09;1.30E-08;0.230604;0.000466845;4.76E-03;0.0255771;2.00E-01;2.02E-24;2.60E-10;1.80E-07;0.230959;0.0504212;0.111322;0.417932;6.64E-02;3.97E-39;9.50E-14;3.21E-11;0.646055
314.271;56.81298;62.25293;73.43468;0.275741;0.209701;0.635187;5.81E-05;2.02E-03;0.000300564;2.44E-01;5.75E-26;2.95E-09;2.66E-08;0.246416;0.000290578;2.70E-03;0.006341323;2.24E-01;3.54E-23;6.75E-10;3.20E-07;0.232973;0.0390376;0.0817337;0.440422;7.91E-02;9.57E-38;2.47E-13;6.57E-11;0.640308
317.1355;56.0065;61.58264;71.62415;0.276201;0.252507;0.621144;3.30E-05;1.14E-03;7.18075E-05;2.63E-01;2.06E-24;7.67E-09;5.44E-08;0.264377;0.000180749;1.53E-03;0.001532837;2.48E-01;6.21E-22;1.75E-09;5.67E-07;0.251493;0.0297968;0.0571799;0.445028;9.38E-02;2.31E-36;6.41E-13;1.34E-10;0.62578
320;55.23635;60.82809;69.85773;0.277717;0.278283;0.598835;1.87E-05;6.43E-04;1.71487E-05;2.83E-01;7.41E-23;1.99E-08;1.11E-07;0.283547;0.000112376;8.65E-04;0.000367839;2.74E-01;1.09E-20;4.56E-09;1.01E-06;0.275045;0.0224866;0.0385135;0.427526;1.10E-01;5.57E-35;1.67E-12;2.75E-10;0.598983
322.865;54.43918;60.01409;68.17284;0.287028;0.300429;0.570378;1.06E-05;3.63E-04;4.09471E-06;3.03E-01;2.66E-21;5.18E-08;2.28E-07;0.303521;6.98389E-05;4.88E-04;8.80532E-05;3.00E-01;1.91E-19;1.18E-08;1.78E-06;0.300303;0.0168198;0.0252315;0.384351;1.29E-01;1.34E-33;4.33E-12;5.63E-10;0.555587
325.73;53.6061;59.12474;66.57949;0.299113;0.326238;0.531951;6.01E-06;2.05E-04;9.77658E-07;3.24E-01;9.55E-20;1.35E-07;4.66E-07;0.324054;4.33896E-05;2.76E-04;2.10556E-05;3.26E-01;3.35E-18;3.08E-08;3.16E-06;0.326101;0.0124953;0.0162158;0.31693;1.50E-01;3.24E-32;1.13E-11;1.15E-09;0.495537
328.594;52.73813;58.18191;65.08531;0.318138;0.34716;0.484545;3.40E-06;1.15E-04;2.33417E-07;3.45E-01;3.43E-18;3.50E-07;9.54E-07;0.344957;2.69502E-05;1.55E-04;5.03198E-06;3.52E-01;5.88E-17;7.99E-08;5.61E-06;0.351831;0.009234429;1.03E-02;0.236045;1.72E-01;7.81E-31;2.92E-11;2.36E-09;0.427994
331.459;51.81401;57.15812;63.7445;0.343568;0.367956;0.423803;1.93E-06;6.50E-05;5.57279E-08;3.66E-01;1.23E-16;9.09E-07;1.95E-06;0.366064;1.67359E-05;8.77E-05;1.20215E-06;3.77E-01;1.03E-15;2.08E-07;9.95E-06;0.377056;0.006797685;6.47E-03;0.158733;1.96E-01;1.88E-29;7.60E-11;4.83E-09;0.368497
334.324;50.79793;56.10666;62.58093;0.368054;0.386205;0.361511;1.09E-06;3.67E-05;1.33047E-08;3.87E-01;4.42E-15;2.36E-06;4.00E-06;0.387208;1.0391E-05;4.94E-05;2.87129E-07;4.01E-01;1.81E-14;5.40E-07;1.77E-05;0.401418;0.00498912;4.05E-03;0.0979537;2.22E-01;4.54E-28;1.97E-10;9.88E-09;0.328707
337.189;49.72306;54.95262;61.61983;0.393567;0.410486;0.310304;6.15E-07;2.07E-05;3.17643E-09;4.08E-01;1.59E-13;6.13E-06;8.18E-06;0.408196;6.45073E-06;2.79E-05;6.857E-08;4.25E-01;3.17E-13;1.40E-06;3.13E-05;0.424627;0.003653607;2.53E-03;0.0568255;2.48E-01;1.10E-26;5.13E-10;2.02E-08;0.310617
340.053;48.5799;53.74971;60.7499;0.414797;0.434202;0.297724;3.48E-07;1.17E-05;7.58348E-10;4.29E-01;5.69E-12;1.59E-05;1.67E-05;0.428659;4.00E-06;1.57E-05;1.63737E-08;4.46E-01;5.56E-12;3.64E-06;5.55E-05;0.446455;0.002671139;1.57E-03;0.0316888;2.74E-01;2.64E-25;1.33E-09;4.14E-08;0.309594
342.9182;47.36652;52.47028;59.88842;0.437002;0.461507;0.309478;1.96E-07;6.58E-06;1.8105E-10;4.47E-01;2.04E-10;4.13E-05;3.42E-05;0.447398;2.49E-06;8.86E-06;3.90959E-09;4.67E-01;9.74E-11;9.47E-06;9.84E-05;0.466729;0.001950433;9.78E-04;0.0172629;2.99E-01;6.38E-24;3.46E-09;8.47E-08;0.31951
345.783;46.11108;51.12518;58.97511;0.44899;0.485364;0.333744;1.11E-07;3.71E-06;4.32E-11;4.59E-01;7.28147E-09;1.07E-04;7.01E-05;0.459379;1.54E-06;5.00E-06;9.33461E-10;4.85E-01;1.70E-09;2.45932E-05;0.000174534;0.485233;0.001422853;6.08E-04;0.009280596;3.24E-01;1.54E-22;9.00E-09;1.73E-07;0.335383
348.648;44.81515;49.72441;58.00141;0.455474;0.50321;0.353444;6.26E-08;2.09E-06;1.03E-11;4.44E-01;2.59335E-07;0.00027699;0.00014339;0.444334;9.57E-07;2.82E-06;2.22869E-10;5.01E-01;2.97E-08;6.3866E-05;0.00030938;0.501114;0.001037257;3.77E-04;0.004953048;3.47E-01;3.71E-21;2.34E-08;3.55E-07;0.353836
351.512;43.59184;48.27037;56.96816;0.351134;0.508719;0.375318;3.53E-08;1.18E-06;2.46E-12;3.48E-01;9.17164E-06;0.000712975;0.000293287;0.349307;5.94E-07;1.59E-06;5.32101E-11;5.09E-01;5.15484E-07;0.000165723;0.000548196;0.509331;0.00075576;2.34E-04;0.002632957;3.69E-01;8.95E-20;6.08E-08;7.26E-07;0.372763
354.377;42.6181;46.83902;55.86854;0.174885;0.484916;0.39428;1.99E-08;6.65E-07;5.88E-13;0.171439;0.000319346;0.001817627;0.000599509;0.174176;3.69E-07;8.96E-07;1.27039E-11;4.81E-01;8.87727E-06;0.000429219;0.000970694;0.482482;0.00055044;1.45E-04;0.001396631;3.89E-01;2.16E-18;1.58E-07;1.49E-06;0.39089
357.242;42.41625;45.53172;54.72959;0.0660289;0.308652;0.40988;1.12E-08;3.75E-07;1.41E-13;0.0525365;0.009846042;0.004539744;0.001223892;0.0681466;2.29E-07;5.05E-07;3.03E-12;0.334728;0.000150671;0.001106659;0.001716744;0.337703;0.00040078;9.02E-05;0.000739968;4.06E-01;5.21E-17;4.10E-07;3.04E-06;0.407429
360.107;42.1863;44.85721;53.53775;0.0916624;0.118609;0.426298;6.34E-09;2.11E-07;3.36E-14;0.0129552;0.07212166;0.0108486;0.002492061;0.0984178;1.42E-07;2.85E-07;7.24E-13;0.117056;0.002456272;0.002822341;0.003029723;0.125365;2.92E-04;5.60E-05;0.000391806;4.21E-01;1.26E-15;1.07E-06;6.22E-06;0.421805
362.971;41.89556;44.68764;52.31722;0.107215;0.0625177;0.437868;3.58E-09;1.19E-07;7.99E-15;0.003000771;0.0773554;0.0236363;0.005047624;0.10904;8.80E-08;1.61E-07;1.73E-13;0.0241091;0.0296102;0.007012206;0.005326952;0.0660586;2.12E-04;3.47E-05;0.000207386;4.33E-01;3.03E-14;2.77E-06;1.27E-05;0.433388
365.836;41.57383;44.38841;51.04666;0.115809;0.121591;0.444388;2.02E-09;6.72E-08;1.95E-15;0.000683734;0.0619917;0.04329921;0.0101167;0.116091;5.46E-08;9.06E-08;4.12E-14;0.004232432;0.0841549;0.0164006;0.009305281;0.114093;1.55E-04;2.15E-05;0.000109751;4.41E-01;7.30E-13;7.20E-06;2.61E-05;0.441146
368.701;41.23737;44.03471;49.7769;0.126605;0.131298;0.439157;1.14E-09;3.79E-08;5.33E-16;0.000154964;0.0448267;0.06119161;0.0198628;0.126036;3.39E-08;5.11E-08;9.82E-15;0.000719478;0.078331;0.0337843;0.0160743;0.128909;1.12E-04;1.34E-05;5.80748E-05;4.43E-01;1.76E-11;1.87E-05;5.33E-05;0.443123
371.566;40.86116;43.63035;48.52573;0.137835;0.13866;0.433796;6.42E-10;2.13633E-08;1.78E-16;3.50268E-05;0.0294854;0.0651784;0.0375192;0.132218;2.10E-08;2.88E-08;2.38E-15;0.00012146;0.05909852;0.055846;0.0272526;0.142319;8.18E-05;8.29E-06;3.07288E-05;4.35E-01;4.24E-10;4.85861E-05;0.000109104;0.435701
374.4304;40.45631;43.24909;47.30815;0.146047;0.148965;0.4119632;3.62E-10;1.20459E-08;0.00E+00;7.90123E-06;0.0179484;0.0552188;0.0662268;0.139402;1.30E-08;1.62E-08;5.95E-16;2.04552E-05;0.0408675;0.06936403;0.0448313;0.155083;5.95E-05;5.14E-06;1.62588E-05;4.13E-01;1.01932E-08;0.000126156;0.000223178;0.413054
377.295;40.02142;42.80733;46.14717;0.15522;0.166221;0.378559;2.04E-10;6.79221E-09;0.00E+00;1.77922E-06;0.0103455;0.0400319;0.104643;0.155022;8.09E-09;9.16E-09;1.49E-16;3.43985E-06;0.0264062;0.06526;0.0704456;0.162115;4.33E-05;3.19E-06;8.60246E-06;3.68E-01;2.44374E-07;0.000327185;0.000456273;0.368414
380.16;39.58207;42.32227;45.11578;0.166262;0.168765;0.324629;1.15E-10;3.82985E-09;0.00E+00;4.0001E-07;0.0057616;0.0262695;0.135908;0.16794;5.02E-09;5.16273E-09;0.00E+00;5.77786E-07;0.0162241;0.0489727;0.103744;0.168941;3.15E-05;1.98E-06;4.55148E-06;2.98E-01;5.82206E-06;0.000845984;0.000931793;0.299795
383.025;39.12131;41.82889;44.25217;0.130409;0.186452;0.228602;6.50E-11;2.1595E-09;0.00E+00;8.98E-08;0.003144657;0.0162012;0.109358;0.128704;3.11E-09;2.91106E-09;0.00E+00;9.69558E-08;0.009635089;0.0310469;0.138745;0.179427;2.29E-05;1.23E-06;2.40813E-06;0.213936;0.000136831;0.002170391;0.001898601;0.218168
385.889;38.76567;41.31928;43.68785;0.0572302;0.155212;0.148646;3.66E-11;1.21766E-09;0.00E+00;2.01E-08;0.001696986;0.009622781;0.0364905;0.0478102;1.93E-09;1.64143E-09;0.00E+00;1.62561E-08;0.005600956;0.017559;0.141984;0.165144;1.67E-05;7.62E-07;1.27E-06;0.135521;0.003051316;0.005459059;0.003850923;0.147901
388.754;38.73004;40.88951;43.31758;0.005850295;0.0715643;0.133994;2.07E-11;6.86589E-10;0.00E+00;4.51E-09;0.000910089;0.00558991;0.006785818;0.0132858;1.20E-09;9.25538E-10;0.00E+00;2.72366E-09;0.003214243;0.009268501;0.0546115;0.0670943;1.21E-05;4.72E-07;6.74E-07;0.0774802;0.0392894;0.0130828;0.007739533;0.137605
391.619;38.69946;40.82424;42.8885;0.008380986;0.006712885;0.155806;1.17E-11;3.8714E-10;0.00E+00;1.01E-09;0.000486439;0.003205695;0.001069812;0.004761947;7.44E-10;5.21873E-10;0.00E+00;4.56E-10;0.001830713;0.004709806;0.00727608;0.0138166;8.82E-06;2.93E-07;3.57E-07;0.0413375;0.0729774;0.0281314;0.0152771;0.157733
394.484;38.66972;40.8031;42.4371;0.007422332;0.009895682;0.163278;6.57E-12;2.18293E-10;0.00E+00;2.25E-10;0.000259531;0.001824939;0.000162053;0.002246524;4.61E-10;2.94264E-10;0.00E+00;7.63E-11;0.001038188;0.00234653;0.000732475;0.004117194;6.42E-06;1.82E-07;1.89E-07;0.0211745;0.0584133;0.0492388;0.0291448;0.157978
397.348;38.65196;40.75376;41.97726;0.005282198;0.0137063;0.166497;3.71E-12;1.23087E-10;0.00E+00;5.03E-11;0.000138334;1.03E-03;2.42E-05;0.001197151;2.86E-10;1.65924E-10;0.00E+00;1.28E-11;0.000587292;1.16E-03;7.00E-05;0.001814884;4.67E-06;1.13E-07;9.98E-08;0.0106087;0.03929963;0.0635418;0.0523474;0.165802
400.2131;38.63356;40.7245;41.4905;0.007771942;0.009295539;0.171066;2.09E-12;6.94037E-11;0.00E+00;1.12E-11;7.36963E-05;5.85E-04;3.61E-06;0.000662439;1.78E-10;9.35578E-11;0.00E+00;2.14E-12;0.000331758;5.68E-04;6.58E-06;0.000906585;3.40E-06;7.00E-08;5.28E-08;0.005253925;0.0234975;0.0576773;0.0853557;0.171788
403.078;38.61401;40.7063;41.00362;0.007371355;0.0114545;0.174325;1.18E-12;3.91339E-11;0.00E+00;2.50E-12;3.92503E-05;3.31E-04;5.35E-07;0.000370286;1.10E-10;5.27534E-11;0.00E+00;3.57E-13;0.000187258;2.78E-04;6.12E-07;0.000466158;2.47E-06;4.34E-08;2.79E-08;0.002586444;0.0128892;0.0374768;0.120214;0.173169
405.943;38.58779;40.66424;40.50453;0.007466924;0.0129244;0.16346;6.65E-13;2.20661E-11;0.00E+00;5.57E-13;2.09E-05;1.87E-04;7.94E-08;2.08E-04;6.83E-11;2.97456E-11;0.00E+00;5.97E-14;0.000105649;1.36E-04;5.66E-08;0.000241832;1.80E-06;2.69E-08;1.48E-08;0.001269315;0.00669926;0.0188812;0.12779;0.154641
408.807;38.56958;40.62605;40.05237;0.006741771;0.0113396;0.0911223;3.75E-13;1.24421E-11;0.00E+00;1.24E-13;1.11E-05;1.05E-04;1.18E-08;1.16E-04;4.24E-11;1.67724E-11;0.00E+00;9.98E-15;5.96E-05;6.65E-05;5.22E-09;0.000126145;1.31E-06;1.67E-08;7.82E-09;0.00062189;0.00337856;0.008195556;0.0685856;0.0807829
411.672;38.55162;40.59308;39.90159;0.007801371;0.0124483;0.0186305;2.11E-13;7.0156E-12;0.00E+00;2.76E-14;5.93E-06;5.94E-05;1.74E-09;6.53E-05;2.63E-11;9.45729E-12;0.00E+00;1.64E-15;3.36E-05;3.25E-05;4.81E-10;6.61E-05;9.51E-07;1.04E-08;4.14E-09;0.00030441;0.00167715;0.003314031;0.01607553;0.0213721
414.537;38.52507;40.55799;39.89073;0.007230592;0.0131901;-0.00019184;1.19E-13;3.95577E-12;0.00E+00;6.18E-15;3.16E-06;3.35E-05;2.58E-10;3.66E-05;1.63E-11;5.33253E-12;0.00E+00;2.74E-16;1.90E-05;1.59E-05;4.42E-11;3.48E-05;6.91E-07;6.43E-09;2.19E-09;1.49E-04;0.000825915;0.001300589;0.002665532;0.004941662
417.402;38.51157;40.51963;39.85971;0.008030145;0.0133417;0.008318549;6.72E-14;2.23058E-12;0.00E+00;1.43E-15;1.68E-06;1.89E-05;3.82E-11;2.06E-05;1.01E-11;3.00682E-12;0;0.00E+00;1.07E-05;7.77E-06;4.07E-12;1.85E-05;5.03E-07;3.99E-09;1.16E-09;7.28E-05;0.000405108;0.00050435;0.000407779;0.001390581
420.266;38.48065;40.48082;39.8463;0.0106276;0.0129824;0.008661557;3.80E-14;1.25774E-12;0.00E+00;3.19E-16;8.94E-07;1.06E-05;5.66E-12;1.15E-05;6.28E-12;1.69544E-12;0;0.00E+00;6.03E-06;3.79E-06;3.74E-13;9.82E-06;3.66E-07;2.47E-09;6.13E-10;3.56E-05;0.000198314;1.95E-04;6.11E-05;0.000490107
423.131;38.44742;40.45377;39.8141;0.008649028;0.0125173;0.009414239;2.14E-14;7.09233E-13;0;0.00E+00;4.76E-07;6.00E-06;8.39E-13;6.48E-06;3.89E-12;9.5598E-13;0;0.00E+00;3.40E-06;1.85E-06;3.43E-14;5.25E-06;2.66E-07;1.53E-09;3.24E-10;1.74E-05;9.70E-05;7.50E-05;9.11E-06;0.000198775
425.996;38.42843;40.4102;39.78818;0.006788051;0.0128033;0.009204489;1.20E-14;3.99907E-13;0;0.00E+00;2.54E-07;3.38E-06;1.24E-13;3.64E-06;2.42E-12;5.39035E-13;0;0.00E+00;1.92E-06;9.06E-07;3.18E-15;2.82E-06;1.94E-07;9.52E-10;1.72E-10;8.51E-06;4.74E-05;2.89E-05;1.35E-06;8.63E-05
428.861;38.40409;40.38067;39.76279;0.008493495;0.0140457;0.005217693;6.74E-15;2.255E-13;0;0.00E+00;1.35E-07;1.91E-06;1.84E-14;2.04E-06;1.50E-12;3.03946E-13;0;0.00E+00;1.08E-06;4.43E-07;3.00E-16;1.52E-06;1.41E-07;5.91E-10;9.08E-11;4.16E-06;2.32E-05;1.11E-05;2.01E-07;3.88E-05
431.7253;38.38066;40.33612;39.75274;0.0102811;0.01596999;0.006352269;3.78E-15;1.27125E-13;0;0.00E+00;7.19E-08;1.08E-06;2.72E-15;1.15E-06;9.30E-13;1.71363E-13;0;0.00E+00;6.09E-07;2.16E-07;0.00E+00;8.25E-07;1.02E-07;3.66E-10;4.80E-11;2.03E-06;1.13E-05;4.28E-06;2.97E-08;1.78E-05
434.59;38.35008;40.29327;39.72895;0.0125483;0.0166758;0.00921608;2.14E-15;7.17026E-14;0;0.00E+00;3.83E-08;6.07E-07;3.89E-16;6.45E-07;5.77E-13;9.66005E-14;0;0.00E+00;3.43E-07;1.06E-07;0.00E+00;4.49E-07;7.45E-08;2.27E-10;2.54E-11;9.94E-07;5.53E-06;1.65E-06;4.40E-09;8.25E-06
437.455;38.31384;40.25219;39.69986;0.0109394;0.0136604;0.0103509;1.15E-15;4.03544E-14;0;0.00E+00;2.04E-08;3.42E-07;5.55E-17;3.63E-07;3.58E-13;5.44786E-14;0;0.00E+00;1.94E-07;5.16E-08;0.00E+00;2.45E-07;5.42E-08;1.41E-10;1.34E-11;4.86E-07;2.70E-06;6.34E-07;6.52E-10;3.88E-06
440.32;38.27859;40.2044;39.67076;0.009482423;0.0147024;0.007733505;6.57E-16;2.28617E-14;0;0.00E+00;1.08E-08;1.92913E-07;0;2.04E-07;2.22E-13;3.06977E-14;0;0.00E+00;1.09E-07;2.52E-08;0.00E+00;1.34E-07;3.94E-08;8.75E-11;7.11E-12;2.37E-07;1.32E-06;2.44E-07;9.66E-11;1.84E-06
443.184;38.25786;40.16413;39.65173;0.006431567;0.0145672;0.00729095;3.29E-16;1.28164E-14;0;0.00E+00;5.78E-09;1.08776E-07;0;1.15E-07;1.38E-13;1.73306E-14;0;0.00E+00;6.16E-08;1.23E-08;0.00E+00;7.39E-08;2.87E-08;5.43E-11;3.76E-12;1.16E-07;6.45E-07;9.38E-08;1.43E-11;8.84E-07
446.049;38.23823;40.11914;39.63242;0.00903556;0.018407;0.00683626;1.64E-16;7.27418E-15;0;0.00E+00;3.08E-09;6.13344E-08;0;6.44E-08;8.54E-14;9.79217E-15;0;0.00E+00;3.47E-08;6.02423E-09;0;4.07E-08;2.09E-08;3.37E-11;1.99E-12;5.67E-08;3.15E-07;3.61E-08;2.12E-12;4.29E-07
448.914;38.21194;40.07236;39.61387;0.008125798;0.0140022;0.006441017;1.64E-16;4.15668E-15;0;0.00E+00;1.64E-09;3.4584E-08;0;3.62E-08;5.30E-14;5.51781E-15;0;0.00E+00;1.96E-08;2.94351E-09;0;2.25E-08;1.52E-08;2.09E-11;1.05E-12;2.77E-08;1.54E-07;1.39E-08;3.14E-13;2.11E-07
451.779;38.18709;40.02758;39.59252;0.009001134;0.0167992;0.008595939;0.00E+00;2.25153E-15;0;0.00E+00;8.72E-10;1.95006E-08;0;2.04E-08;3.29E-14;3.10862E-15;0;0.00E+00;1.10E-08;1.43824E-09;0;1.25E-08;1.10E-08;1.30E-11;5.57E-13;1.35E-08;7.53E-08;5.35E-09;4.65E-14;1.05E-07
454.643;38.16389;39.98015;39.56944;0.007806852;0.0193913;0.008386203;0.00E+00;1.38556E-15;0;0.00E+00;4.64E-10;1.09956E-08;0;1.15E-08;2.04E-14;1.78746E-15;0;0.00E+00;6.22E-09;7.02739E-10;0;6.93E-09;8.02E-09;8.04E-12;2.95E-13;6.61E-09;3.68E-08;2.06E-09;6.89E-15;5.35E-08
457.508;38.13691;39.91774;39.54189;0.009192408;0.0167287;0.007432516;0.00E+00;6.92779E-16;0;0.00E+00;2.47E-10;6.19998E-09;0;6.45E-09;1.26E-14;1.0103E-15;0;0.00E+00;3.51E-09;3.43367E-10;0;3.85E-09;5.84E-09;4.99E-12;1.56E-13;3.23E-09;1.80E-08;7.92E-10;1.03E-15;2.78E-08
460.373;38.11104;39.88576;39.5268;0.008486667;0.0102652;0.007781742;0.00E+00;3.4639E-16;0;0.00E+00;1.32E-10;3.49592E-09;0;3.63E-09;7.82E-15;5.44009E-16;0;0.00E+00;1.98E-09;1.67773E-10;0;2.15E-09;4.25E-09;3.09E-12;8.26E-14;1.58E-09;8.78E-09;3.05E-10;1.47E-16;1.49E-08
463.237;38.08971;39.84941;39.5027;0.008513775;0.011916;0.0104893;0.00E+00;1.73195E-16;0;0.00E+00;7.01E-11;1.97121E-09;0;2.04E-09;4.88E-15;3.10862E-16;0;0.00E+00;1.12E-09;8.19761E-11;0;1.20E-09;3.09E-09;1.92E-12;4.37E-14;7.71E-10;4.29E-09;1.17E-10;0.00E+00;8.27E-09
466.102;38.06649;39.81238;39.46881;0.00870886;0.0132507;0.007604156;0.00E+00;1.73195E-16;0;0.00E+00;3.73E-11;1.11149E-09;0;1.15E-09;3.02E-15;1.55431E-16;0;0.00E+00;6.29E-10;4.00545E-11;0;6.69E-10;2.25E-09;1.19E-12;2.31E-14;3.77E-10;2.10E-09;4.52E-11;0.00E+00;4.77E-09
468.967;38.04326;39.77128;39.45648;0.009851864;0.01210887;0.007034204;0.00E+00;0;0;0.00E+00;1.99E-11;6.26723E-10;0;6.47E-10;1.87E-15;7.77156E-17;0;0.00E+00;3.55E-10;1.95711E-11;0;3.74E-10;1.63E-09;7.39E-13;1.22E-14;1.84E-10;1.02E-09;1.73761E-11;0;2.86E-09
471.832;38.01041;39.73526;39.43032;0.009003685;0.0131827;0.009192394;0.00E+00;0;0;0.00E+00;1.06E-11;3.53384E-10;0;3.64E-10;1.15E-15;7.77156E-17;0;0.00E+00;2.00E-10;9.56269E-12;0;2.10E-10;1.19E-09;4.58E-13;6.47E-15;9.00E-11;5.01E-10;6.6871E-12;0;1.79E-09
474.696;37.99175;39.69977;39.4009;0.006383387;0.01315199;0.0105583;0.00E+00;0;0;0.00E+00;5.63E-12;1.99259E-10;0;2.05E-10;7.11E-16;0;0;0.00E+00;1.13E-10;4.67245E-12;0;1.17E-10;8.64E-10;2.84E-13;3.42E-15;4.40E-11;2.45E-10;2.57351E-12;0;1.16E-09
477.561;37.97245;39.65903;39.37613;0.008299206;0.0108377;0.009431802;0.00E+00;0;0;0.00E+00;3.00E-12;1.12354E-10;0;1.15E-10;4.44E-16;0;0;0.00E+00;6.36E-11;2.28302E-12;0;6.59E-11;6.29E-10;1.76E-13;1.83E-15;2.15E-11;1.20E-10;9.90408E-13;0;7.71E-10
480.426;37.9439;39.62393;39.33956;0.009863003;0.009818326;0.008012658;0.00E+00;0;0;0.00E+00;1.60E-12;6.33522E-11;0;6.49E-11;2.66E-16;0;0;0.00E+00;3.59E-11;1.11552E-12;0;3.70E-11;4.57E-10;1.09E-13;9.77E-16;1.05E-11;5.84E-11;3.81162E-13;0;5.27E-10
483.291;37.9211;39.59981;39.32648;0.00907573;0.0135599;0.008075767;0.00E+00;0;0;0.00E+00;8.50E-13;3.57217E-11;0;3.66E-11;1.78E-16;0;0;0.00E+00;2.02E-11;5.45044E-13;0;2.08E-11;3.33E-10;6.78E-14;4.88E-16;5.13E-12;2.85E-11;1.46683E-13;0;3.67E-10
486.155;37.89348;39.54585;39.29484;0.005837205;0.0175719;0.0104228;0.00E+00;0;0;0.00E+00;4.52E-13;2.01421E-11;0;2.06E-11;8.88E-17;0;0;0.00E+00;1.14E-11;2.66316E-13;0;1.17E-11;2.42E-10;4.21E-14;2.44E-16;2.51E-12;1.39E-11;5.64615E-14;0;2.59E-10
489.0202;37.88636;39.51075;39.26502;0.005157698;0.0138937;0.011054;0.00E+00;0;0;0.00E+00;2.41E-13;1.13573E-11;0;1.16E-11;8.88E-17;0;0;0.00E+00;6.43E-12;1.30127E-13;0;6.56E-12;1.76E-10;2.61E-14;1.22E-16;1.22E-12;6.81E-12;2.1716E-14;0;1.84E-10
491.885;37.86438;39.46676;39.23392;0.0139507;0.0177886;0.0178531;0.00E+00;0;0;0.00E+00;1.28E-13;6.40394E-12;0;6.53E-12;0.00E+00;0;0;0.00E+00;3.63E-12;6.35914E-14;0;3.69E-12;1.28E-10;1.62E-14;1.22E-16;5.98E-13;3.33E-12;8.36664E-15;0;1.32E-10
494.75;37.84212;39.43873;39.20059;0.003413934;0.002942686;0.0109225;0.00E+00;0;0;0.00E+00;6.83E-14;3.61091E-12;0;3.68E-12;0.00E+00;0;0;0.00E+00;2.04E-12;3.10596E-14;0;2.08E-12;9.31E-11;1.01E-14;0.00E+00;2.92E-13;1.63E-12;3.22409E-15;0;9.51E-11
497.614;37.82146;39.41721;39.18523;-0.0760056;-0.0792124;-0.0787462;0.00E+00;0;0;0.00E+00;3.64E-14;2.03607E-12;0;2.07E-12;0.00E+00;0;0;0.00E+00;1.15E-12;1.51834E-14;0;1.17E-12;6.77E-11;6.22E-15;0.00E+00;1.43E-13;7.95E-13;1.22569E-15;0;6.87E-11