File: src/TGA/Gd_TGA.csv
temperature;rate_3;rate_5;rate_10;rate_3_diff;rate_5_diff;rate_10_diff;rate_3_diff_reaction_0;rate_3_diff_reaction_1;rate_3_diff_reaction_2;rate_3_diff_reaction_3;rate_3_diff_reaction_4;rate_3_diff_reaction_5;rate_3_diff_reaction_6;rate_3_diff_reaction_7;rate_3_diff_cumulative;rate_5_diff_reaction_0;rate_5_diff_reaction_1;rate_5_diff_reaction_2;rate_5_diff_reaction_3;rate_5_diff_reaction_4;rate_5_diff_reaction_5;rate_5_diff_reaction_6;rate_5_diff_reaction_7;rate_5_diff_cumulative;rate_10_diff_reaction_0;rate_10_diff_reaction_1;rate_10_diff_reaction_2;rate_10_diff_reaction_3;rate_10_diff_reaction_4;rate_10_diff_reaction_5;rate_10_diff_reaction_6;rate_10_diff_reaction_7;rate_10_diff_cumulative
29.476;100;100;100;0;0;0;3.18E-06;4.98E-12;5.72E-13;2.17E-14;9.51E-11;3.21E-135;1.82E-36;3.39E-38;3.26E-06;3.48E-07;8.93E-12;7.72E-16;5.06E-13;3.07E-10;5.23E-183;2.02E-39;3.97E-33;1.74E-04;4.12E-07;9.06E-13;1.67E-13;1.75E-11;2.45E-18;2.18E-133;1.64E-42;8.68E-44;7.44E-06
33.29566;99.53449;100.315;99.35357;0.008576725;-0.001487051;-0.001120524;4.10E-06;8.02E-12;9.22E-13;3.49E-14;1.31E-10;1.46E-133;4.73E-36;8.80E-38;4.31E-06;4.68E-07;1.37E-11;1.33E-15;7.41E-13;4.04E-10;6.20E-181;5.26E-39;8.52E-33;2.55E-04;5.41E-07;1.38E-12;2.56E-13;2.40E-11;3.95E-18;5.27E-132;4.26E-42;2.25E-43;1.27E-05
37.11532;99.52654;100.326;99.37652;0.00036489;-0.002974687;-0.002318647;5.29E-06;1.29E-11;1.49E-12;5.63E-14;1.80E-10;6.67E-132;1.23E-35;2.29E-37;5.84E-06;6.27E-07;2.09E-11;2.30E-15;1.09E-12;5.30E-10;7.34E-179;1.37E-38;1.83E-32;3.73E-04;7.10E-07;2.12E-12;3.91E-13;3.30E-11;6.37E-18;1.27E-130;1.11E-41;5.86E-43;2.16E-05
40.93498;99.51649;100.339;99.37157;0.003131223;-0.002128935;0.000382492;6.82E-06;2.09E-11;2.39E-12;9.07E-14;2.47E-10;3.04E-130;3.19E-35;5.94E-37;8.27E-06;8.41E-07;3.19E-11;3.97E-15;1.59E-12;6.96E-10;8.70E-177;3.55E-38;3.93E-32;5.46E-04;9.33E-07;3.24E-12;5.97E-13;4.54E-11;1.03E-17;3.07E-129;2.88E-41;1.52E-42;3.70E-05
44.75464;99.51485;100.355;99.37547;0.001793737;-0.002827905;-0.001620182;8.80E-06;3.36E-11;3.86E-12;1.46E-13;3.40E-10;1.39E-128;8.30E-35;1.54E-36;1.26E-05;1.13E-06;4.88E-11;6.85E-15;2.33E-12;9.15E-10;1.03E-174;9.22E-38;8.43E-32;7.97E-04;1.23E-06;4.95E-12;9.13E-13;6.24E-11;1.66E-17;7.39E-128;7.48E-41;3.96E-42;6.35E-05
48.5743;99.51101;100.366;99.38573;0.001604652;-0.001673799;-0.002013364;1.13E-05;5.42E-11;6.22E-12;2.36E-13;4.67E-10;6.32E-127;2.16E-34;4.01E-36;2.11E-05;1.51E-06;7.46E-11;1.18E-14;3.41E-12;1.20E-09;1.22E-172;2.40E-37;1.81E-31;1.16E-03;1.61E-06;7.56E-12;1.40E-12;8.58E-11;2.67E-17;1.78E-126;1.94E-40;1.03E-41;1.09E-04
52.39396;99.50125;100.3707;99.39022;0.002753151;0.001954705;0.000732905;1.46E-05;8.73E-11;1.00E-11;3.80E-13;6.42E-10;2.88E-125;5.60E-34;1.04E-35;4.01E-05;2.03E-06;1.14E-10;2.04E-14;5.00E-12;1.58E-09;1.45E-170;6.23E-37;3.88E-31;1.69E-03;2.12E-06;1.16E-11;2.13E-12;1.18E-10;4.30E-17;4.30E-125;5.05E-40;2.67E-41;1.87E-04
56.21362;99.49801;100.37;99.38604;0.002920182;-0.000215818;-0.001603844;1.89E-05;1.41E-10;1.62E-11;6.12E-13;8.82E-10;1.31E-123;1.46E-33;2.71E-35;8.50E-05;2.73E-06;1.74E-10;3.52E-14;7.33E-12;2.07E-09;1.71E-168;1.62E-36;8.34E-31;2.46E-03;2.78E-06;1.77E-11;3.26E-12;1.62E-10;6.94E-17;1.04E-123;1.31E-39;6.94E-41;3.21E-04
60.03328;99.47985;100.373;99.40299;0.003292417;0.000223728;0.000329621;2.44E-05;2.27E-10;2.61E-11;9.87E-13;1.21E-09;5.99E-122;3.78E-33;7.04E-35;1.96E-04;3.66E-06;2.66E-10;6.07E-14;1.07E-11;2.72E-09;2.03E-166;4.21E-36;1.79E-30;3.56E-03;3.65E-06;2.70E-11;4.98E-12;2.23E-10;1.12E-16;2.50E-122;3.41E-39;1.80E-40;5.49E-04
63.85294;99.47304;100.369;99.38977;0.001885422;-0.000294008;0.000613456;3.14E-05;3.66E-10;4.20E-11;1.59E-12;1.67E-09;2.73E-120;9.83E-33;1.83E-34;4.77E-04;4.90E-06;4.07E-10;1.05E-13;1.57E-11;3.58E-09;2.40E-164;1.09E-35;3.84E-30;5.12E-03;4.80E-06;4.13E-11;7.62E-12;3.06E-10;1.80E-16;6.04E-121;8.86E-39;4.69E-40;9.36E-04
67.6726;99.46613;100.374;99.39258;0.001457824;-0.000677387;0.000468677;4.05E-05;5.90E-10;6.77E-11;2.57E-12;2.29E-09;1.24E-118;2.55E-32;4.75E-34;1.20E-03;6.58E-06;6.22E-10;1.81E-13;2.30E-11;4.70E-09;2.85E-162;2.84E-35;8.25E-30;7.31E-03;6.30E-06;6.31E-11;1.16E-11;4.21E-10;2.91E-16;1.46E-119;2.30E-38;1.22E-39;1.58E-03
71.49226;99.4581;100.384;99.38561;0.003132626;-0.000163297;0.001439517;5.23E-05;9.51E-10;1.09E-10;4.14E-12;3.15E-09;5.67E-117;6.64E-32;1.24E-33;3.03E-03;8.83E-06;9.52E-10;3.12E-13;3.38E-11;6.18E-09;3.37E-160;7.38E-35;1.77E-29;1.03E-02;8.28E-06;9.65E-11;1.78E-11;5.79E-10;4.68E-16;3.51E-118;5.98E-38;3.16E-39;2.65E-03
75.31192;99.44223;100.382;99.38701;0.003788851;0.000124568;-6.42245E-05;6.74E-05;1.53E-09;1.76E-10;6.67E-12;4.33E-09;2.59E-115;1.73E-31;3.21E-33;7.65E-03;1.18E-05;1.45E-09;5.39E-13;4.95E-11;8.11E-09;3.99E-158;1.92E-34;3.80E-29;1.43E-02;1.09E-05;1.48E-10;2.72E-11;7.96E-10;7.55E-16;8.47E-117;1.55E-37;8.22E-39;4.35E-03
79.13158;99.43283;100.378;99.38491;3.53E-03;-0.000399624;0.000235588;8.70E-05;2.47E-09;2.84E-10;1.07E-11;5.96E-09;1.18E-113;4.48E-31;8.34E-33;1.88E-02;1.59E-05;2.22E-09;9.30E-13;7.25E-11;1.07E-08;4.73E-156;4.98E-34;8.16E-29;1.94E-02;1.43E-05;2.26E-10;4.16E-11;1.09E-09;1.22E-15;2.04E-115;4.04E-37;2.14E-38;6.92E-03
82.95124;99.41207;100.382;99.38214;0.004091828;0.00054529;0.002279052;1.12E-04;3.98E-09;4.57E-10;1.73E-11;8.19E-09;5.37E-112;1.16E-30;2.17E-32;4.34E-02;2.13E-05;3.40E-09;1.60E-12;1.06E-10;1.40E-08;5.61E-154;1.29E-33;1.75E-28;2.56E-02;1.88E-05;3.45E-10;6.36E-11;1.50E-09;1.96E-15;4.93E-114;1.05E-36;5.55E-38;1.05E-02
86.7709;99.40396;100.38;99.37796;0.001386287;0.001615198;-0.000434628;1.45E-04;6.42E-09;7.37E-10;2.79E-11;1.13E-08;2.45E-110;3.03E-30;5.63E-32;8.73E-02;2.86E-05;5.20E-09;2.77E-12;1.56E-10;1.84E-08;6.64E-152;3.36E-33;3.76E-28;3.24E-02;2.46E-05;5.27E-10;9.72E-11;2.07E-09;3.16E-15;1.19E-112;2.73E-36;1.44E-37;1.50E-02
90.59056;99.40007;100.373;99.38284;-0.000219046;-0.003400807;-0.001618131;1.87E-04;1.03E-08;1.19E-09;4.50E-11;1.55E-08;1.12E-108;7.86E-30;1.46E-31;1.43E-01;3.84E-05;7.94E-09;4.78E-12;2.28E-10;2.42E-08;7.87E-150;8.74E-33;8.07E-28;3.90E-02;3.24E-05;8.06E-10;1.49E-10;2.84E-09;5.10E-15;2.87E-111;7.09E-36;3.75E-37;1.96E-02
94.41022;99.39651;100.396;99.38735;0.004254687;-0.002249383;-0.000158038;2.41E-04;1.67E-08;1.92E-09;7.26E-11;2.13E-08;5.09E-107;2.04E-29;3.80E-31;0.1879652;5.15E-05;1.21E-08;8.25E-12;3.34E-10;3.17E-08;9.32E-148;2.27E-32;1.73E-27;4.44E-02;4.25E-05;1.23E-09;2.27E-10;3.91E-09;8.22E-15;6.92E-110;1.84E-35;9.74E-37;2.36E-02
98.22988;99.36987;100.393;99.38376;0.004995578;-0.001044716;0.001650052;3.11E-04;2.69E-08;3.09E-09;1.17E-10;2.93E-08;2.32E-105;5.31E-29;9.88E-31;0.209979;6.90E-05;1.86E-08;1.42E-11;4.89E-10;4.17E-08;1.10E-145;5.90E-32;3.72E-27;4.71E-02;5.59E-05;1.88E-09;3.47E-10;5.38E-09;1.32E-14;1.67E-108;4.79E-35;2.53E-36;2.58E-02
102.05;99.36667;100.404;99.38004;0.001353323;-0.00285362;1.96E-03;4.01E-04;4.33E-08;4.98E-09;1.89E-10;4.02E-08;1.06E-103;1.38E-28;2.57E-30;0.20926;9.26E-05;2.84E-08;2.46E-11;7.17E-10;5.48E-08;1.31E-143;1.53E-31;7.99E-27;4.64E-02;7.34E-05;2.88E-09;5.31E-10;7.39E-09;2.13E-14;4.02E-107;1.24E-34;6.58E-36;2.58E-02
105.8692;99.35759;100.407;99.37309;4.48E-03;0.002922828;0.000495703;5.17E-04;6.99E-08;8.02E-09;3.04E-10;5.53E-08;4.82E-102;3.59E-28;6.67E-30;0.185686;1.24E-04;4.34E-08;4.24E-11;1.05E-09;7.20E-08;1.55E-141;3.98E-31;1.71E-26;0.0420701;9.64E-05;4.40E-09;8.12E-10;1.02E-08;3.44E-14;9.70E-106;3.23E-34;1.71E-35;2.34E-02
109.689;99.33484;100.39;99.37793;0.004792654;0.002774019;-0.001276871;6.66E-04;1.13E-07;1.29E-08;4.90E-10;7.60E-08;2.20E-100;9.32E-28;1.73E-29;0.139373;1.67E-04;6.63E-08;7.31E-11;1.54E-09;9.46E-08;1.83E-139;1.04E-30;3.68E-26;0.0352337;1.27E-04;6.72E-09;1.24E-09;1.40E-08;5.55E-14;2.34E-104;8.40E-34;4.44E-35;1.94E-02
113.509;99.32679;100.3926;99.38039;0.001165754;-0.000851247;0.000343312;0.000858955;1.82E-07;2.08E-08;7.90E-10;1.05E-07;1.00E-98;2.42E-27;4.50E-29;0.084236;2.23E-04;1.01E-07;1.26E-10;2.26E-09;1.24E-07;2.17E-137;2.69E-30;7.90E-26;0.0274366;1.66E-04;1.03E-08;1.90E-09;1.92E-08;8.94E-14;5.65E-103;2.18E-33;1.15E-34;1.47E-02
117.328;99.32451;100.39;99.37657;0.002645989;0.00279027;0.001739545;0.001107381;2.93E-07;3.36E-08;1.27E-09;1.44E-07;4.57E-97;6.29E-27;1.17E-28;0.041995;3.00E-04;1.55E-07;2.18E-10;3.30E-09;1.63E-07;2.57E-135;6.99E-30;1.70E-25;0.0201274;2.18E-04;1.57E-08;2.90E-09;2.64E-08;1.44E-13;1.36E-101;5.67E-33;3.00E-34;1.04E-02
121.148;99.30246;100.378;99.3703;0.005790732;0.00027769;0.001178224;0.001427406;4.72E-07;5.42E-08;2.05E-09;1.98E-07;2.08E-95;1.63E-26;3.04E-28;0.0190162;4.02E-04;2.37E-07;3.76E-10;4.84E-09;2.14E-07;3.05E-133;1.82E-29;3.64E-25;0.0141518;2.87E-04;2.40E-08;4.43E-09;3.63E-08;2.32E-13;3.28E-100;1.47E-32;7.79E-34;0.006969944
124.9675;99.28625;100.383;99.36822;0.00434089;0.000256678;0.00062115;0.0018395;7.60E-07;8.73E-08;3.31E-09;2.72E-07;9.50E-94;4.25E-26;7.90E-28;0.008930372;0.000539078;3.62E-07;6.49E-10;7.09E-09;2.82E-07;3.61E-131;4.72E-29;7.82E-25;0.009733786;3.77E-04;3.67E-08;6.78E-09;4.99E-08;3.75E-13;7.92E-99;3.83E-32;2.02E-33;0.004566051
128.787;99.26777;100.378;99.36447;0.001916832;0.001053952;0.001826033;0.002369876;1.23E-06;1.41E-07;5.33E-09;3.73E-07;4.33E-92;1.10E-25;2.05E-27;0.005150793;0.000722826;5.54E-07;1.12E-09;1.04E-08;3.70E-07;4.28E-129;1.23E-28;1.68E-24;0.006717167;4.95E-04;5.61E-08;1.04E-08;6.86E-08;6.04E-13;1.91E-97;9.95E-32;5.26E-33;0.003042191
132.607;99.26362;100.3754;99.35604;0.005884977;0.002099774;0.002492956;0.003052029;1.98E-06;2.27E-07;8.59E-09;5.13E-07;1.97E-90;2.87E-25;5.34E-27;0.004132009;0.000969037;8.46E-07;1.93E-09;1.52E-08;4.86E-07;5.07E-127;3.19E-28;3.60E-24;0.004810596;0.000649643;8.58E-08;1.58E-08;9.43E-08;9.73E-13;4.61E-96;2.58E-31;1.37E-32;0.002169141
136.426;99.22693;100.364;99.34688;0.005734862;0.002625871;0.003504066;0.003928644;3.18E-06;3.66E-07;1.39E-08;7.06E-07;9.00E-89;7.45E-25;1.39E-26;0.004348642;0.00129881;1.29E-06;3.33E-09;2.23E-08;6.38E-07;6.01E-125;8.28E-28;7.73E-24;0.003733439;0.000852803;1.31E-07;2.42E-08;1.30E-07;1.57E-12;1.11E-94;6.72E-31;3.55E-32;0.001748634
140.246;99.21363;100.356;99.33447;0.006979504;0.003384481;-0.000605702;0.005053915;5.13E-06;5.90E-07;2.23E-08;9.70E-07;4.10E-87;1.94E-24;3.60E-26;0.005220793;0.001740262;1.98E-06;5.75E-09;3.27E-08;8.39E-07;7.12E-123;2.15E-27;1.66E-23;0.003272731;0.001119242;2.01E-07;3.70E-08;1.78E-07;2.53E-12;2.68E-93;1.75E-30;9.23E-32;0.001643816
144.0658;99.17637;100.348;99.34038;0.008469771;0.001941215;0.000376558;0.006496339;8.28E-06;9.50E-07;3.60E-08;1.33E-06;1.87E-85;5.03E-24;9.36E-26;0.006568598;0.002330783;3.02E-06;9.93E-09;4.79E-08;1.10E-06;8.43E-121;5.59E-27;3.56E-23;0.00329214;0.001468485;3.07E-07;5.66E-08;2.45E-07;4.08E-12;6.47E-92;4.53E-30;2.40E-31;0.001774602
147.885;99.14892;100.338;99.33235;0.0102264;0.004919701;3.11E-03;0.00834196;1.33E-05;1.53E-06;5.80E-08;1.83E-06;8.53E-84;1.31E-23;2.43E-25;0.008382458;0.003119935;4.62E-06;1.71E-08;7.02E-08;1.45E-06;9.98E-119;1.45E-26;7.65E-23;0.003723203;0.001925952;4.69E-07;8.65E-08;3.37E-07;6.57E-12;1.56E-90;1.18E-29;6.23E-31;0.002104477
151.705;99.09922;100.311;99.31983;0.0115086;0.007403366;0.0038678;0.010698;2.15E-05;2.47E-06;9.35E-08;2.52E-06;3.89E-82;3.40E-23;6.32E-25;0.0107337;0.004173153;7.06E-06;2.96E-08;1.03E-07;1.90E-06;1.18E-116;3.77E-26;1.64E-22;0.004554006;0.002524638;7.16E-07;1.32E-07;4.63E-07;1.06E-11;3.76E-89;3.06E-29;1.62E-30;0.002629084
155.525;99.0637;100.288;99.30385;0.01154158;0.008438546;0.004956541;0.0136968;3.47E-05;3.98E-06;1.51E-07;3.47E-06;1.77E-80;8.83E-23;1.64E-24;0.0137426;0.005576337;1.08E-05;5.10E-08;1.51E-07;2.50E-06;1.40E-114;9.81E-26;3.53E-22;0.005820991;0.003307215;1.10E-06;2.02E-07;6.37E-07;1.71E-11;9.08E-88;7.96E-29;4.21E-30;0.003368979
159.344;99.00742;100.251;99.28402;0.0190744;0.0112316;0.005693324;0.0174994;5.59E-05;6.42E-06;2.43E-07;4.77E-06;8.08E-79;2.29E-22;4.27E-24;0.017568;0.007441422;1.65E-05;8.81E-08;2.21E-07;3.28E-06;1.66E-112;2.55E-25;7.57E-22;0.007605134;0.004328586;1.67E-06;3.09E-07;8.75E-07;2.75E-11;2.19E-86;2.07E-28;1.09E-29;0.004366137
163.1641;98.92496;100.206;99.25828;0.0287732;0.0126492;0.007043356;0.0222982;9.00E-05;1.03E-05;3.92E-07;6.55E-06;3.68E-77;5.96E-22;1.11E-23;0.02240605;0.009912772;2.52E-05;1.52E-07;3.23E-07;4.31E-06;1.97E-110;6.62E-25;1.62E-21;0.010032;0.005658937;2.56E-06;4.72E-07;1.20E-06;4.44E-11;5.28E-85;5.37E-28;2.84E-29;0.005683283
166.984;98.80053;100.152;99.22932;0.0369384;0.0181236;0.009524078;0.028318;1.45E-04;1.67E-05;6.32E-07;9.01E-06;1.68E-75;1.55E-21;2.88E-23;0.0284896;0.013174;3.86E-05;2.62E-07;4.74E-07;5.66E-06;2.33E-108;1.72E-24;3.49E-21;0.0132743;0.007387203;3.91E-06;7.22E-07;1.65E-06;7.15E-11;1.27E-83;1.40E-27;7.38E-29;0.007405147
170.803;98.6498;100.074;99.19183;0.0447279;0.02958743;0.009747199;0.0358126;2.34E-04;2.69E-05;1.02E-06;1.24E-05;7.66E-74;4.02E-21;7.49E-23;0.0360868;0.0174542;5.90E-05;4.53E-07;6.94E-07;7.44E-06;2.76E-106;4.47E-24;7.49E-21;0.0175561;0.009624769;5.98E-06;1.10E-06;2.27E-06;1.15E-10;3.07E-82;3.63E-27;1.92E-28;0.009640883
174.623;98.46663;99.94444;99.14747;0.0571998;0.0378734;0.016585;0.0450562;3.77E-04;4.33E-05;1.64E-06;1.70E-05;3.49E-72;1.05E-20;1.95E-22;0.0454949;0.0230317;9.01E-05;7.81E-07;1.02E-06;9.77E-06;3.27E-104;1.16E-23;1.61E-20;0.0231547;0.012509;9.14E-06;1.69E-06;3.13E-06;1.86E-10;7.41E-81;9.42E-27;4.98E-28;0.0125269
178.443;98.22419;99.79336;99.07699;0.06869685;0.04521193;0.0204573;0.0563252;6.07E-04;6.98E-05;2.65E-06;2.34E-05;1.59E-70;2.72E-20;5.06E-22;0.0570279;0.0302318;1.38E-04;1.35E-06;1.49E-06;1.28E-05;3.87E-102;3.02E-23;3.45E-20;0.0303985;0.0162057;1.40E-05;2.58E-06;4.30E-06;3.00E-10;1.79E-79;2.45E-26;1.30E-27;0.0162288
182.2624;97.93978;99.60194;98.98938;0.0854494;0.0563238;0.0302491;0.0698696;9.77E-04;1.13E-04;4.26E-06;3.22E-05;7.25E-69;7.06E-20;1.31E-21;0.0709955;0.0394146;2.11E-04;2.33E-06;2.18E-06;1.69E-05;4.59E-100;7.85E-23;7.41E-20;0.0396548;0.0209094;2.14E-05;3.94E-06;5.91E-06;4.83E-10;4.31E-78;6.36E-26;3.37E-27;0.020942
186.082;97.6155;99.37084;98.85378;0.107673;0.0660407;0.0391135;0.0858711;1.57E-03;1.81E-04;6.87E-06;4.42E-05;3.31E-67;1.83E-19;3.41E-21;0.08767495;0.0509446;3.22E-04;4.02E-06;3.20E-06;2.22E-05;5.43E-98;2.04E-22;1.59E-19;0.0513009;0.0268395;3.27E-05;6.03E-06;8.13E-06;7.78E-10;1.04E-76;1.65E-25;8.74E-27;0.026887
189.902;97.18396;99.09426;98.7069;0.115896;0.0747933;0.0423723;0.104388;2.52E-03;2.92E-04;1.11E-05;6.08E-05;1.51E-65;4.77E-19;8.87E-21;0.107277;0.0651378;4.92E-04;6.93E-06;4.69E-06;2.91E-05;6.44E-96;5.30E-22;3.41E-19;0.0656733;0.0342289;4.99E-05;9.21E-06;1.12E-05;1.25E-09;2.51E-75;4.30E-25;2.27E-26;0.0342997
193.721;96.73844;98.80839;98.53941;0.126551;0.0871956;0.04420652;0.12529;0.004046678;4.71E-04;1.79E-05;8.36E-05;6.87E-64;1.24E-18;2.30E-20;0.12991;0.0821805;7.51E-04;1.20E-05;6.87E-06;3.82E-05;7.62E-94;1.38E-21;7.33E-19;0.0829905;0.0433044;7.63E-05;1.41E-05;1.54E-05;2.02E-09;6.05E-74;1.12E-24;5.90E-26;0.0434104
197.541;96.21228;98.43724;98.358;0.151882;0.108385;0.0517933;0.148182;0.00646588;0.000759142;2.88E-05;1.15E-04;3.13E-62;3.22E-18;5.99E-20;0.155551;0.102025;1.15E-03;2.06E-05;1.01E-05;5.02E-05;9.03E-92;3.58E-21;1.57E-18;0.103254;0.054254;1.17E-04;2.15E-05;2.11E-05;3.26E-09;1.46E-72;2.90E-24;1.53E-25;0.0544134
201.3607;95.59427;98.00145;98.14335;0.185523;0.126091;0.0662972;0.172301;0.0102774;0.001222718;4.64E-05;1.58E-04;1.43E-60;8.36E-18;1.56E-19;0.184005;0.124275;1.75E-03;3.56E-05;1.47E-05;6.60E-05;1.07E-89;9.29E-21;3.38E-18;0.126142;0.0671839;1.78E-04;3.29E-05;2.90E-05;5.26E-09;3.52E-71;7.54E-24;3.99E-25;0.0674241
205.18;94.81671;97.49006;97.87769;0.223774;0.148291;0.0796207;0.196348;0.0162022;0.001968402;7.48E-05;2.17E-04;6.51E-59;2.17E-17;4.04E-19;0.214811;0.148092;2.67E-03;6.15E-05;2.16E-05;8.67E-05;1.27E-87;2.41E-20;7.25E-18;0.150931;0.0820692;2.72E-04;5.03E-05;3.99E-05;8.47E-09;8.49E-70;1.96E-23;1.04E-24;0.0824317
209;93.91053;96.87854;97.56509;0.264144;0.181704;0.100639;0.218152;0.0252219;0.003166315;1.21E-04;2.99E-04;2.97E-57;5.65E-17;1.05E-18;0.246959;0.172139;0.004062385;1.06E-04;3.16E-05;1.14E-04;1.50E-85;6.28E-20;1.56E-17;0.176453;0.098709;4.16E-04;7.69E-05;5.49E-05;1.37E-08;2.05E-68;5.09E-23;2.69E-24;0.0992567
212.82;92.86213;96.13773;97.14805;0.295267;0.206307;0.11629;0.234047;0.0385251;0.005086715;1.94E-04;4.10E-04;1.35E-55;1.47E-16;2.73E-18;0.278263;0.194581;0.006171974;1.83E-04;4.64E-05;1.50E-04;1.78E-83;1.63E-19;3.34E-17;0.201132;0.116702;6.35E-04;1.18E-04;7.54E-05;2.20E-08;4.94E-67;1.32E-22;6.99E-24;0.11753
216.639;91.71401;95.33502;96.68217;0.31664;0.227075;0.134124;0.238171;0.0572534;0.008155099;3.13E-04;5.64E-04;6.17E-54;3.81E-16;7.09E-18;0.304456;0.213133;0.009347122;3.16E-04;6.79E-05;1.96E-04;2.11E-81;4.24E-19;7.17E-17;0.223061;0.135452;0.000969079;1.80E-04;1.04E-04;3.55E-08;1.19E-65;3.44E-22;1.82E-23;0.136704
220.459;90.5018;94.44491;96.14669;0.322476;0.24562;0.157447;0.223134;0.0819475;0.0130317;5.04E-04;7.75E-04;2.81E-52;9.91E-16;1.84E-17;0.319393;0.225153;0.0140878;5.45E-04;9.95E-05;2.58E-04;2.50E-79;1.10E-18;1.54E-16;0.240143;0.15421;0.001477476;2.75E-04;1.42E-04;5.72E-08;2.87E-64;8.93E-22;4.72E-23;0.156105
224.279;89.27518;93.49825;95.51306;0.315797;0.252476;0.179184;0.185191;0.111793;0.0207168;8.12E-04;1.06E-03;1.28E-50;2.57E-15;4.79E-17;0.319577;0.227883;0.0210811;9.39E-04;1.46E-04;3.39E-04;2.96E-77;2.86E-18;3.30E-16;0.250389;0.172129;0.002249477;4.19E-04;1.96E-04;9.22E-08;6.93E-63;2.32E-21;1.23E-22;0.174993
228.098;88.07419;92.52752;94.79769;0.31079;0.253326;0.196911;0.132287;0.144138;0.0326683;1.31E-03;1.46E-03;5.85E-49;6.69E-15;1.24E-16;0.311863;0.219061;0.0312152;1.62E-03;2.14E-04;4.45E-04;3.50E-75;7.43E-18;7.09E-16;0.252554;0.188287;0.003417707;6.41E-04;2.69E-04;1.49E-07;1.67E-61;6.03E-21;3.19E-22;0.192615
231.918;86.89216;91.58721;94.0276;0.316303;0.242141;0.212003;0.0816078;0.174853;0.050876;2.10E-03;2.01E-03;2.67E-47;1.74E-14;3.23E-16;0.311446;0.198032;0.0455229;2.79E-03;3.13E-04;5.85E-04;4.15E-73;1.93E-17;1.52E-15;0.247241;0.201651;0.005176304;9.79E-04;3.70E-04;2.40E-07;4.03E-60;1.57E-20;8.28E-22;0.208176
235.738;85.65351;90.69588;93.1906;0.344989;0.233347;0.22892;0.0449824;0.199344;0.077763;3.37E-03;2.76E-03;1.21E-45;4.52E-14;8.40E-16;0.328217;0.166955;0.0649846;4.79E-03;4.58E-04;7.68E-04;4.91E-71;5.02E-17;3.27E-15;0.23796;0.210913;0.007802858;1.49E-03;5.08E-04;3.86E-07;9.73E-59;4.07E-20;2.15E-21;0.220717
239.5573;84.26329;89.78601;92.307;0.383331;0.229487;0.232095;0.0230792;0.213202;0.115692;5.39E-03;3.78E-03;5.54E-44;1.17E-13;2.18E-15;0.36115;0.130851;0.090117;8.22E-03;6.70E-04;1.01E-03;5.82E-69;1.30E-16;7.02E-15;0.23087;0.214244;0.0116799;2.28E-03;6.98E-04;6.23E-07;2.35E-57;1.06E-19;5.59E-21;0.2289
243.377;82.76423;88.91413;91.42285;0.412719;0.22928;0.2318299;0.0113676;0.21198;0.165887;8.59E-03;5.19E-03;2.53E-42;3.05E-13;5.67E-15;0.403016;0.0957413;0.120361;1.40E-02;9.80E-04;1.32E-03;6.90E-67;3.39E-16;1.51E-14;0.232449;0.209143;0.0173042;3.47E-03;9.58E-04;1.00E-06;5.66E-56;2.75E-19;1.45E-20;0.230875
247.197;81.12898;88.02349;90.53542;0.454916;0.249018;0.222409;0.005475792;0.19165;0.226976;1.36E-02;7.11E-03;1.15E-40;7.92E-13;1.47E-14;0.444805;0.0660906;0.153472;2.38E-02;1.43E-03;1.74E-03;8.17E-65;8.81E-16;3.23E-14;0.246535;0.192913;0.02525938;5.27E-03;1.32E-03;1.62E-06;1.36E-54;7.14E-19;3.78E-20;0.224761
251.016;79.32738;87.03461;89.72196;0.494971;0.281696;0.204122;0.002605623;0.152552;0.294169;2.13E-02;9.73E-03;5.25E-39;2.06E-12;3.83E-14;0.480332;0.0436217;0.185272;3.98E-02;2.09E-03;2.28E-03;9.68E-63;2.29E-15;6.94E-14;0.273114;0.164524;0.0361122;7.99E-03;1.80E-03;2.61E-06;3.29E-53;1.86E-18;9.81E-20;0.210432
254.836;77.39818;85.92291;88.95843;0.526382;0.313557;0.183462;0.001231235;0.104452;0.360259;3.28E-02;1.33E-02;2.39E-37;5.35E-12;9.95E-14;0.512002;0.02788261;0.210014;6.54E-02;3.05E-03;2.99E-03;1.15E-60;5.95E-15;1.49E-13;0.30933;0.127242;0.0501948;1.21E-02;2.47E-03;4.20E-06;7.94E-52;4.82E-18;2.55E-19;0.191968
258.6556;75.31565;84.6607;88.29441;0.57165;0.349363;0.16788;0.000579339;0.0620137;0.418134;4.93E-02;1.81E-02;1.09E-35;1.39E-11;2.59E-13;0.548125;0.0174383;0.221327;1.04E-01;4.44E-03;3.92E-03;1.36E-58;1.54E-14;3.20E-13;0.351161;0.0886779;0.06728167;1.81E-02;3.38E-03;6.78E-06;1.92E-50;1.25E-17;6.63E-19;0.177418
262.475;73.0763;83.27998;87.64333;0.611659;0.38852;0.176093;0.000271858;0.0331045;0.46199;7.17E-02;2.46E-02;4.97E-34;3.61E-11;6.72E-13;0.591678;0.01075148;0.213906;0.158198;6.45E-03;5.15E-03;1.61E-56;4.01E-14;6.87E-13;0.394447;0.0563335;0.0862916;2.68E-02;4.62E-03;1.09E-05;4.62E-49;3.26E-17;1.72E-18;0.174079
266.295;70.69258;81.72773;86.9403;0.639059;0.42683;0.195128;0.000127334;0.0165531;0.48239;1.00E-01;3.32E-02;2.27E-32;9.39E-11;1.75E-12;0.632253;0.006568025;0.186498;0.226559;9.31E-03;6.74E-03;1.91E-54;1.04E-13;1.47E-12;0.435677;0.0333722;0.105255;3.93E-02;6.30E-03;1.76E-05;1.11E-47;8.46E-17;4.47E-18;0.184209
270.115;68.23234;80.04488;86.1628;0.634671;0.470195;0.221886;5.95623E-05;0.007987995;0.447377;1.32E-01;4.46E-02;1.03E-30;2.44E-10;4.54E-12;0.632303;0.003988898;0.144917;0.30223;1.34E-02;8.82E-03;2.26E-52;2.71E-13;3.16E-12;0.473326;0.0188747;0.121714;5.64E-02;8.57E-03;2.84E-05;2.69E-46;2.20E-16;1.16E-17;0.205547
273.934;65.89675;78.18799;85.28315;0.548433;0.509769;0.245164;2.78341E-05;0.003785875;0.301026;1.65E-01;5.95E-02;4.71E-29;6.34E-10;1.18E-11;0.529716;0.002413516;0.100544;0.37471;1.90E-02;1.15E-02;2.67E-50;7.04E-13;6.79E-12;0.508224;0.0103781;0.133399;7.88E-02;1.16E-02;4.58E-05;6.48E-45;5.71E-16;3.02E-17;0.234245
277.7539;63.9855;76.18028;84.31463;0.400006;0.548038;0.272279;1.29977E-05;0.001778477;0.118012;1.96E-01;7.86E-02;2.15E-27;1.65E-09;3.06E-11;0.394094;0.001456848;0.0634196;0.434903;2.67E-02;1.51E-02;3.17E-48;1.83E-12;1.46E-11;0.541582;0.00561356;0.138807;1.07E-01;1.56E-02;7.37E-05;1.56E-43;1.48E-15;7.85E-17;0.26673
281.574;62.61358;74.0262;83.23712;0.36108;0.582198;0.295315;6.06613E-06;8.32E-04;0.0311398;2.21E-01;1.02E-01;9.79E-26;4.28E-09;7.96E-11;0.354984;0.000878044;0.0373334;0.478082;3.70E-02;1.96E-02;3.75E-46;4.76E-12;3.13E-11;0.572908;0.003008313;0.137422;1.39E-01;2.09E-02;1.19E-04;3.77E-42;3.86E-15;2.04E-16;0.300017
285.393;61.1655;71.78398;82.07279;0.395402;0.593399;0.324302;2.82992E-06;3.88E-04;0.00712023;2.38E-01;1.31E-01;4.46E-24;1.11E-08;2.07E-10;0.376931;0.000528678;0.0210164;0.50016;5.01E-02;2.55E-02;4.45E-44;1.24E-11;6.72E-11;0.597307;0.001603725;0.129664;1.72E-01;2.77E-02;1.92E-04;9.10E-41;1.00E-14;5.30E-16;0.331527
289.213;59.61949;69.52038;80.78759;0.409846;0.579248;0.356612;1.31975E-06;1.81E-04;0.001568038;2.43E-01;1.66E-01;2.03E-22;2.89E-08;5.38E-10;0.410514;0.000318117;0.01151747;0.48276;6.61E-02;3.31E-02;5.27E-42;3.21E-11;1.44E-10;0.593715;0.000852398;0.116727;2.05E-01;3.63E-02;3.09E-04;2.19E-39;2.60E-14;1.38E-15;0.359267
293.033;58.05212;67.37415;79.40127;0.41875;0.529818;0.379159;6.1532E-07;8.44E-05;0.000342022;2.19E-01;2.04E-01;9.28E-21;7.51E-08;1.40E-09;0.423183;0.000191337;0.006215105;0.372788;8.44E-02;4.27E-02;6.24E-40;8.34E-11;3.10E-10;0.506293;0.000452281;0.100374;2.34E-01;4.69E-02;4.97E-04;5.29E-38;6.77E-14;3.58E-15;0.382347
296.8522;56.47138;65.50361;77.9056;0.375453;0.386511;0.406809;2.86829E-07;3.93E-05;7.43913E-05;1.39E-01;2.46E-01;4.23E-19;1.95E-07;3.63E-09;0.384676;0.000115051;3.32E-03;0.177455;1.04E-01;5.48E-02;7.39E-38;2.17E-10;6.65E-10;0.339896;0.000239736;0.0826231;2.58E-01;5.95E-02;8.01E-04;1.28E-36;1.76E-13;9.30E-15;0.401201
300.672;55.12399;64.29797;76.32463;0.335525;0.24722;0.428221;1.33684E-07;1.83E-05;1.61631E-05;5.11E-02;2.89E-01;1.93E-17;5.07E-07;9.43E-09;0.339957;6.91667E-05;1.77E-03;0.0519342;1.24E-01;6.99E-02;8.75E-36;5.63E-10;1.43E-09;0.247726;0.000126996;0.0653472;2.76E-01;7.39E-02;1.29E-03;3.08E-35;4.57E-13;2.42E-14;0.4171605
304.492;53.82155;63.37987;74.67032;0.356851;0.262301;0.448073;6.22997E-08;8.53E-06;3.50996E-06;1.31E-02;3.31E-01;8.78E-16;1.32E-06;2.45E-08;0.34386;4.15766E-05;9.40E-04;0.0122175;1.43E-01;8.85E-02;1.04E-33;1.46E-09;3.06E-09;0.244254;6.72478E-05;0.049915;0.289786;8.98E-02;2.08E-03;7.43E-34;1.19E-12;6.28E-14;0.431604
308.311;52.44247;62.29741;72.91954;0.38072;0.302767;0.458409;2.90303E-08;3.98E-06;7.62E-07;2.97E-03;3.70E-01;4.00E-14;3.42E-06;6.37E-08;0.372776;2.49898E-05;4.98E-04;0.00270465;1.59E-01;1.11E-01;1.23E-31;3.80E-09;6.58E-09;0.272893;3.56007E-05;0.0370432;0.298275;1.06E-01;3.34E-03;1.79E-32;3.08E-12;1.63E-13;0.445054
312.131;50.92178;61.10741;71.18077;0.405427;0.328238;0.455334;1.35265E-08;1.85E-06;1.65399E-07;6.53E-04;4.05E-01;1.82E-12;8.89E-06;1.65E-07;0.40522;1.50193E-05;2.64E-04;0.000590041;1.72E-01;1.37E-01;1.46E-29;9.88E-09;1.41E-08;0.310232;1.88437E-05;0.0268704;0.300786;1.23E-01;5.36E-03;4.32E-31;8.02E-12;4.24E-13;0.455931
315.9505;49.35048;59.81551;69.44335;0.431107;0.355788;0.450794;6.30229E-09;8.63E-07;3.59E-08;1.42E-04;4.34E-01;8.29E-11;2.31E-05;4.30E-07;0.434398;9.02643E-06;1.40E-04;0.000128258;1.80E-01;1.68E-01;1.72E-27;2.57E-08;3.03E-08;0.348715;9.97295E-06;0.0191555;0.291165;1.39E-01;8.58E-03;1.04E-29;2.08E-11;1.10E-12;0.457476
319.77;47.66454;58.44428;67.75056;0.456687;0.368739;0.432163;2.93623E-09;4.02E-07;7.79E-09;3.09E-05;4.58E-01;3.76E-09;6.00E-05;1.12E-06;0.458455;5.42463E-06;7.40E-05;2.7851E-05;1.68E-01;2.02E-01;2.04E-25;6.67E-08;6.51E-08;0.370639;5.27772E-06;0.0134814;0.252459;1.53E-01;1.37E-02;2.51E-28;5.41E-11;2.86E-12;0.432355
323.59;45.90422;57.0656;66.15821;0.475464;0.319276;0.392765;1.37E-09;1.87E-07;1.69E-09;6.72E-06;4.71E-01;1.70E-07;1.56E-04;2.90E-06;0.471192;3.25998E-06;3.91E-05;6.04567E-06;8.02E-02;2.40E-01;2.42E-23;1.73E-07;1.40E-07;0.319952;2.79282E-06;0.009400575;0.168846;1.65E-01;2.17E-02;6.06E-27;1.41E-10;7.44E-12;0.364918
327.409;44.15706;55.93923;64.72443;0.352859;0.286366;0.319196;6.37E-10;8.72E-08;3.67E-10;1.46E-06;3.81E-01;7.62E-06;4.04E-04;7.54E-06;0.381912;1.95908E-06;2.07E-05;1.31214E-06;1.20E-02;2.79E-01;2.87E-21;4.51E-07;3.00E-07;0.290712;1.47782E-06;6.51E-03;0.0771286;1.75E-01;3.40E-02;1.46E-25;3.65E-10;1.93E-11;0.292859
331.229;43.18564;54.78415;63.6275;0.0843417;0.3230291;0.26573;2.97E-10;4.06E-08;7.96E-11;3.17E-07;7.71E-02;3.36E-04;1.04E-03;1.96E-05;0.078519;1.17729E-06;1.10E-05;2.84762E-07;1.18E-03;3.18E-01;3.39E-19;1.17E-06;6.44E-07;0.319372;7.81966E-07;4.49E-03;0.0262412;1.83E-01;5.25E-02;3.53E-24;9.50E-10;5.02E-11;0.266684
335.0488;43.08627;53.50644;62.59217;0.0142768;0.359552;0.29439;1.38E-10;1.89E-08;1.73E-11;6.87E-08;4.86E-03;1.18E-02;2.67E-03;5.09E-05;0.0193809;7.0748E-07;5.80E-06;6.17965E-08;1.10E-04;3.57E-01;4.02E-17;3.04E-06;1.38E-06;0.356737;4.13755E-07;3.09E-03;0.007823366;1.90E-01;7.94E-02;8.51E-23;2.47E-09;1.30E-10;0.279852
338.868;42.94931;52.07605;61.39461;0.0474248;0.393989;0.334181;6.44E-11;8.82E-09;3.75E-12;1.49201E-08;0.000263029;5.17E-02;6.66E-03;1.32E-04;0.0587841;4.25E-07;3.07E-06;1.34102E-08;1.02E-05;3.93E-01;4.76E-15;7.90E-06;2.97E-06;0.392747;2.18922E-07;2.12E-03;0.002232014;1.93E-01;1.16E-01;2.05E-21;6.41E-09;3.39E-10;0.313392
342.688;42.74265;50.5308;60.08438;0.0660315;0.42958;0.361275;3.00E-11;4.11E-09;8.14E-13;3.24E-09;1.40705E-05;0.0482288;0.015704;0.000343137;0.06429;2.55E-07;1.62E-06;2.91006E-09;9.41E-07;4.25E-01;5.63E-13;2.05E-05;6.37E-06;0.42543;1.15833E-07;1.45E-03;0.000628454;1.89E-01;1.63E-01;4.95E-20;1.67E-08;8.81E-10;0.354019
346.508;42.46369;48.83633;58.67294;0.0761234;0.456794;0.376479;1.40E-11;1.91E-09;1.77E-13;7.03E-10;7.50435E-07;0.0378857;0.0328866;0.000888376;0.0716614;1.54E-07;8.59E-07;6.31E-10;8.68E-08;4.53E-01;6.66E-11;5.33E-05;1.37E-05;0.452866;6.12872E-08;9.92E-04;0.000176262;1.62E-01;2.18E-01;1.19E-18;4.33E-08;2.29E-09;0.380667
350.327;42.17232;47.0833;57.23387;0.0825817;0.457043;0.364928;6.51E-12;8.91E-10;3.83E-14;1.52E-10;3.99477E-08;0.0269026;0.0562031;0.002286753;0.0853925;9.23E-08;4.54E-07;1.37E-10;7.99E-09;4.61E-01;7.86E-09;1.38E-04;2.93E-05;0.461193;3.24268E-08;6.78E-04;4.93767E-05;9.53E-02;2.75E-01;2.88E-17;1.12E-07;5.95E-09;0.370727
354.1471;41.83877;45.4211;55.87388;0.0934142;0.373244;0.356419;3.03E-12;4.15E-10;8.35E-15;3.31E-11;2.1236E-09;0.017379;0.0745111;0.005800659;0.0976908;5.54E-08;2.40E-07;2.97E-11;7.35E-10;3.50E-01;9.24E-07;3.59E-04;6.30E-05;0.350209;1.71568E-08;4.63E-04;1.38265E-05;3.29E-02;3.28E-01;6.95E-16;2.92E-07;1.55E-08;0.36128
357.967;41.46035;44.22457;54.47707;0.104653;0.120713;0.387066;1.41E-12;1.93E-10;1.77E-15;7.18E-12;1.12775E-10;0.0104123;0.0778873;0.0141952;0.102495;3.33E-08;1.27E-07;6.45E-12;6.76E-11;9.11E-02;0.000107349;0.000925222;0.000135129;0.0923056;9.08E-09;3.16E-04;3.87111E-06;8.20E-03;3.73E-01;1.68E-14;7.60E-07;4.02E-08;0.381282
361.786;41.05221;44.12741;52.9525;0.108299;0.01194741;0.422824;6.58E-13;9.01E-11;3.80E-16;1.56E-12;5.98458E-12;0.005923935;0.0665302;0.0320387;0.104493;2.00E-08;6.73E-08;1.40E-12;6.21724E-12;0.0102351;0.0100773;0.002359993;0.00028981;0.0229623;4.80E-09;2.16E-04;1.08375E-06;1.84E-03;4.07E-01;4.04E-13;1.97E-06;1.04E-07;0.409368
365.606;40.64005;43.96713;51.29657;0.114958;0.0514259;0.45007;3.07E-13;4.20E-11;1.27E-16;3.38E-13;3.17352E-13;0.003264346;0.04738591;0.0620554;0.112706;1.20E-08;3.56E-08;3.04E-13;5.71497E-13;0.000976954;0.0501196;0.005855233;0.000620886;0.0575728;2.54E-09;1.47E-04;3.03391E-07;4.04E-04;4.32E-01;9.74E-12;5.13E-06;2.71E-07;0.432694
369.426;40.17205;43.7568;49.55008;0.128792;0.0614858;0.462138;1.43E-13;1.95E-11;0.00E+00;7.34E-14;1.68588E-14;0.00176589;0.0288172;0.096962;0.127545;7.23E-09;1.88E-08;6.59E-14;5.25E-14;9.13472E-05;0.0451673;0.0136193;0.001327129;0.0602051;1.34E-09;1.01E-04;8.49313E-08;8.81E-05;4.49E-01;2.35E-10;1.33E-05;7.05E-07;0.449216
373.2454;39.6733;43.5024;47.80127;0.136935;0.0689667;0.4503;6.65E-14;9.11E-12;0.00E+00;1.59E-14;8.38E-16;0.000945535;0.0155911;0.1227;0.139237;4.34E-09;9.97E-09;1.43E-14;4.85E-15;8.49763E-06;0.0352103;0.027766;0.002822912;0.0658077;7.11E-10;6.87E-05;2.37753E-08;1.91E-05;4.59E-01;5.66E-09;3.46E-05;1.83E-06;0.45934
377.065;39.14027;43.2303;46.11537;0.138174;0.0777015;0.418087;3.10E-14;4.24E-12;0.00E+00;3.48E-15;0.00E+00;0.000503469;0.007846113;0.126312;0.134661;2.61E-09;5.27E-09;3.11E-15;4.66E-16;7.88159E-07;0.0238914;0.0458141;0.005943347;0.0756497;3.76E-10;4.69E-05;6.65552E-09;4.16E-06;4.58E-01;1.36E-07;8.99E-05;4.76E-06;0.458067
380.885;38.65588;42.91932;44.59483;0.0825618;0.0841047;0.362682;1.45E-14;1.98E-12;0;7.46E-16;0.00E+00;0.000267282;0.003796059;0.0752046;0.0792679;1.57E-09;2.79E-09;6.22E-16;4.66E-17;7.29412E-08;0.0141361;0.0592298;0.0122525;0.0856185;1.99E-10;3.20E-05;1.86E-09;9.03635E-07;0.401183;3.27E-06;2.33E-04;1.24E-05;0.401465
384.704;38.4665;42.58891;43.36933;0.0128389;0.0949306;0.213723;6.74E-15;9.21E-13;0;1.87E-16;0.00E+00;0.000141669;0.001800567;0.015067;0.0170092;9.43E-10;1.48E-09;1.24E-16;0.00E+00;6.739E-09;0.007533099;0.0619397;0.02423851;0.0937113;1.05E-10;2.19E-05;5.22E-10;1.96211E-07;0.191682;7.82E-05;6.04E-04;3.21E-05;0.192418
388.524;38.44395;42.19916;42.83217;0.007622853;0.105884;0.0413097;3.10E-15;4.29E-13;0;6.22E-17;0.00E+00;7.50263E-05;0.000845925;0.001765165;0.002686116;5.67E-10;7.81E-10;0.00E+00;0.00E+00;6.21802E-10;0.003761415;0.0543324;0.0445314;0.102625;5.57E-11;1.49E-05;1.46E-10;4.2597E-08;0.0357395;1.81E-03;1.56E-03;8.34E-05;0.0392008
392.3437;38.3992;41.79175;42.7581;0.0137988;0.119883;0.0330053;1.46E-15;2.00E-13;0;0.00E+00;0.00E+00;3.97152E-05;0.000395629;0.00018916;0.000624503;3.40E-10;4.13E-10;0.00E+00;0.00E+00;5.73158E-11;0.001812893;0.0403615;0.07299985;0.115174;2.95E-11;1.02E-05;4.09E-11;9.25E-09;0.004594383;0.0271652;0.003948559;0.000216633;0.0359349
396.163;38.34067;41.32122;42.54772;0.0191307;0.130839;0.0706062;6.37E-16;9.31E-14;0;0.00E+00;0.00E+00;2.10E-05;1.85E-04;2.00E-05;0.000225701;2.05E-10;2.19E-10;0.00E+00;0.00E+00;5.27914E-12;0.000858356;0.0255963;0.103903;0.130358;1.56E-11;6.95E-06;1.14E-11;2.01E-09;0.000555869;0.0637622;0.009680271;0.000561765;0.0745671
399.983;38.26268;40.80828;42.26463;0.008648568;0.138869;0.083313;2.73E-16;4.33E-14;0;0.00E+00;0.00E+00;1.11E-05;8.61E-05;2.12E-06;9.9327E-05;1.23E-10;1.16E-10;0.00E+00;0.00E+00;4.86E-13;0.000402928;0.0142833;0.128347;0.143033;8.26E-12;4.74E-06;3.20E-12;4.36E-10;6.67158E-05;0.0583647;0.0219104;0.001452048;0.0817987
403.803;38.26268;40.28455;41.94311;-0.000840192;0.128601;0.0978965;1.82E-16;2.02E-14;0;0.00E+00;0.00E+00;5.88E-06;4.01E-05;2.24E-07;4.62E-05;7.39E-11;6.12E-11;0.00E+00;0.00E+00;4.47E-14;0.000188372;0.007322701;0.127751;0.135262;4.37E-12;3.24E-06;8.96E-13;9.45E-11;7.99728E-06;0.044761;0.0424267;0.003722255;0.0909212
407.622;38.26268;39.84799;41.54195;0;0.0478624;0.106925;9.10E-17;9.39E-15;0;0.00E+00;0.00E+00;3.11E-06;1.87E-05;2.37E-08;2.18E-05;4.44E-11;3.24E-11;0.00E+00;0.00E+00;4.11E-15;8.7897E-05;0.003577961;0.0482331;0.0518989;2.31E-12;2.21E-06;2.51E-13;2.05E-11;9.58331E-07;0.0297445;0.0649754;0.009345024;0.104068
411.442;38.26268;39.80798;41.13936;0;0.002626271;0.117749;0.00E+00;4.35E-15;0;0.00E+00;0.00E+00;1.65E-06;8.71E-06;2.51E-09;1.04E-05;2.67E-11;1.71E-11;0.00E+00;0.00E+00;3.85E-16;4.09772E-05;0.001705466;0.004571285;0.006317728;1.22E-12;1.51E-06;7.03E-14;4.45E-12;1.14822E-07;0.0172899;0.0765784;0.0223212;0.116191
415.262;38.26268;39.77011;40.66369;0;0.008151936;0.130483;0.00E+00;2.05E-15;0;0.00E+00;0.00E+00;8.72E-07;4.06E-06;2.65E-10;4.93E-06;1.60E-11;9.06E-12;0.00E+00;0.00E+00;0.00E+00;1.91E-05;8.03E-04;3.11E-04;0.001133504;6.47E-13;1.03E-06;1.97E-14;9.66E-13;1.37561E-08;0.009105357;0.0700217;0.047938;0.127066
419.081;38.26268;39.74192;40.14391;0;0.005230713;0.140857;0.00E+00;9.33E-16;0;0.00E+00;0.00E+00;4.61E-07;1.89E-06;2.80E-11;2.35E-06;9.63E-12;4.80E-12;0.00E+00;0.00E+00;0.00E+00;8.90E-06;3.76E-04;2.05E-05;4.05E-04;3.42E-13;7.02E-07;5.47E-15;2.10E-13;1.65E-09;0.004516128;0.0493556;0.0858223;0.139695
422.901;38.26268;39.72077;39.62885;0;0.008284192;0.146617;0.00E+00;4.35E-16;0;0.00E+00;0.00E+00;2.44E-07;8.80E-07;2.96E-12;1.12E-06;5.79E-12;2.54E-12;0.00E+00;0.00E+00;0.00E+00;4.14E-06;1.76E-04;1.34E-06;1.81E-04;1.81E-13;4.79E-07;1.56E-15;4.55E-14;1.97E-10;0.002169164;0.0271164;0.122326;0.151612
426.721;38.26268;39.6928;39.05167;0;0.006542;0.127038;0.00E+00;1.87E-16;0;0.00E+00;0.00E+00;1.29E-07;4.10E-07;3.13E-13;5.39E-07;3.48E-12;1.34E-12;0.00E+00;0.00E+00;0.00E+00;1.93E-06;8.19E-05;8.80E-08;8.39E-05;9.58E-14;3.27E-07;4.26E-16;9.88E-15;2.36E-11;0.001025314;0.0124268;0.12654;0.139992
430.5403;38.26268;39.66419;38.66093;0;0.008666083;0.03736288;0.00E+00;1.24E-16;0;0.00E+00;0.00E+00;6.83E-08;1.91E-07;3.31E-14;2.59E-07;2.09E-12;7.10E-13;0;0.00E+00;0.00E+00;8.99E-07;3.82E-05;5.75E-09;3.91E-05;5.07E-14;2.23E-07;1.42E-16;2.14E-15;2.83E-12;4.81E-04;5.16E-03;3.77E-02;0.0433434
434.36;38.26268;39.62891;38.64564;0;0.009684529;-0.000671144;0.00E+00;6.22E-17;0;0.00E+00;0.00E+00;3.61E-08;8.90E-08;3.50E-15;1.25E-07;1.26E-12;3.76E-13;0;0.00E+00;0.00E+00;4.19E-07;1.78E-05;3.76E-10;1.82E-05;2.68E-14;1.52E-07;0.00E+00;4.66E-16;3.39E-13;2.25E-04;2.05E-03;2.65E-03;0.004923342
438.18;38.26268;39.59644;38.61154;0;0.008550299;0.009051741;0.00E+00;0.00E+00;0;0.00E+00;0.00E+00;1.91E-08;4.15E-08;3.66E-16;6.06E-08;7.55E-13;1.99E-13;0;0.00E+00;0.00E+00;1.95E-07;8.28E-06;2.46E-11;8.48E-06;1.42E-14;1.04E-07;0.00E+00;9.33E-17;4.06E-14;1.05E-04;7.97E-04;1.44E-04;1.05E-03
441.999;38.26268;39.56209;38.58686;0;0.008274664;0.00519557;0.00E+00;0.00E+00;0;0.00E+00;0.00E+00;1.01E-08;1.93E-08;3.33E-17;2.94E-08;4.54E-13;1.05E-13;0;0.00E+00;0.00E+00;9.09E-08;3.86E-06;1.60E-12;3.95E-06;7.52E-15;7.10E-08;0.00E+00;0.00E+00;4.90E-15;4.89E-05;3.08E-04;7.70E-06;3.65E-04
445.819;38.26268;39.53447;38.5663;0;0.00796446;0.004861189;0.00E+00;0.00E+00;0;0.00E+00;0.00E+00;5.35E-09;8.99487E-09;0;1.43E-08;2.73E-13;5.56E-14;0;0.00E+00;0.00E+00;4.24E-08;1.80E-06;1.05E-13;1.84E-06;3.98E-15;4.85E-08;0.00E+00;0.00E+00;5.33E-16;2.28E-05;1.19E-04;4.08E-07;1.42E-04
449.6386;38.26268;39.49253;38.54424;0;0.00787049;0.005211463;0.00E+00;0.00E+00;0;0.00E+00;0.00E+00;2.83E-09;4.19009E-09;0;7.02E-09;1.64E-13;2.95E-14;0;0.00E+00;0.00E+00;1.97E-08;8.38E-07;6.85E-15;8.57E-07;2.11E-15;3.31E-08;0.00E+00;0.00E+00;1.07E-16;1.06E-05;4.57E-05;2.16E-08;5.64E-05
453.458;38.26268;39.47184;38.53259;0;0.006838803;0.004577708;0.00E+00;0.00E+00;0;0.00E+00;0.00E+00;1.50E-09;1.95188E-09;0;3.45E-09;9.84E-14;1.55E-14;0;0.00E+00;0.00E+00;9.19E-09;3.90E-07;4.40E-16;3.99E-07;1.12E-15;2.26E-08;0.00E+00;0.00E+00;0.00E+00;4.94E-06;1.76E-05;1.15E-09;2.26E-05
457.278;38.26268;39.43849;38.50393;0;0.0113002;0.005949197;0.00E+00;0.00E+00;0;0.00E+00;0.00E+00;7.93E-10;9.09244E-10;0;1.70E-09;5.92E-14;8.24E-15;0;0.00E+00;0.00E+00;4.28E-09;1.82E-07;3.66E-17;1.86E-07;5.60E-16;1.54E-08;0.00E+00;0.00E+00;0.00E+00;2.30E-06;6.78E-06;6.07E-11;9.10E-06
461.098;38.26268;39.39545;38.48691;0;0.008537861;0.00553757;0.00E+00;0.00E+00;0;0.00E+00;0.00E+00;4.19E-10;4.23554E-10;0;8.43E-10;3.56E-14;4.35E-15;0;0.00E+00;0.00E+00;1.99E-09;8.47E-08;0.00E+00;8.67E-08;3.11E-16;1.05E-08;0.00E+00;0.00E+00;0.00E+00;1.07E-06;2.61E-06;3.22E-12;3.69E-06
464.917;38.26268;39.37577;38.46612;0;0.004404805;0.003410773;0.00E+00;0.00E+00;0;0.00E+00;0.00E+00;2.22E-10;1.97305E-10;0;4.19E-10;2.13E-14;2.33E-15;0;0.00E+00;0.00E+00;9.29E-10;3.94E-08;0.00E+00;4.04E-08;1.87E-16;7.18E-09;0.00E+00;0.00E+00;0.00E+00;5.00E-07;1.00E-06;1.70E-13;1.51E-06
468.7369;38.26268;39.3531;38.4529;0;0.005951613;0.005465587;0.00E+00;0.00E+00;0;0.00E+00;0.00E+00;1.17E-10;9.19107E-11;0;2.09E-10;1.29E-14;1.24E-15;0;0.00E+00;0.00E+00;4.33E-10;1.83712E-08;0;1.88E-08;6.22E-17;4.90E-09;0.00E+00;0.00E+00;0.00E+00;2.33E-07;3.86E-07;9.02E-15;6.24E-07
472.557;38.26268;39.33083;38.42314;0;0.00755063;0.006893733;0.00E+00;0.00E+00;0;0.00E+00;0.00E+00;6.21E-11;4.28149E-11;0;1.05E-10;7.67E-15;6.22E-16;0;0.00E+00;0.00E+00;2.02E-10;8.55786E-09;0;8.76E-09;6.22E-17;3.34E-09;0.00E+00;0.00E+00;0.00E+00;1.08E-07;1.49E-07;4.91E-16;2.60E-07
476.376;38.26268;39.2994;38.40069;0;0.00531961;0.00444911;0.00E+00;0.00E+00;0;0.00E+00;0.00E+00;3.29E-11;1.99445E-11;0;5.28E-11;4.64E-15;3.11E-16;0;0.00E+00;0.00E+00;9.39E-11;3.98652E-09;0;4.08E-09;0.00E+00;2.28E-09;0.00E+00;0.00E+00;0.00E+00;5.05E-08;5.72E-08;3.77E-17;1.10E-07
480.196;38.26268;39.28659;38.38583;0;0.004088382;0.00514284;0.00E+00;0.00E+00;0;0.00E+00;0.00E+00;1.74E-11;9.29078E-12;0;2.67E-11;2.80E-15;1.55E-16;0;0.00E+00;0.00E+00;4.37E-11;1.85704E-09;0;1.90E-09;0.00E+00;1.56E-09;0.00E+00;0.00E+00;0.00E+00;2.35E-08;2.20E-08;0.00E+00;4.71E-08
484.016;38.26268;39.26204;38.36237;0;0.01039589;0.007093957;0.00E+00;0.00E+00;0;0.00E+00;0.00E+00;9.20E-12;4.32792E-12;0;1.35E-11;1.68E-15;7.77E-17;0;0.00E+00;0.00E+00;2.04E-11;8.65069E-10;0;8.85E-10;0.00E+00;1.06E-09;0.00E+00;0.00E+00;0.00E+00;1.10E-08;8.47E-09;0.00E+00;2.05E-08
487.8352;38.26268;39.21554;38.33635;0;0.0102587;0.007275138;0.00E+00;0.00E+00;0;0.00E+00;0.00E+00;4.87E-12;2.01608E-12;0;6.88E-12;1.04E-15;7.77E-17;0;0.00E+00;0.00E+00;9.49E-12;4.02976E-10;0;4.12E-10;0.00E+00;7.25E-10;0.00E+00;0.00E+00;0.00E+00;5.11E-09;3.26E-09;0.00E+00;9.09E-09
491.655;38.26268;39.17928;38.30647;0.005917522;0.0134556;0.0134532;0.00E+00;0.00E+00;0;0.00E+00;0.00E+00;2.58E-12;9.39157E-13;0;3.51E-12;6.39E-16;0.00E+00;0;0.00E+00;0.00E+00;4.42E-12;1.87719E-10;0;1.92E-10;0.00E+00;4.95E-10;0.00E+00;0.00E+00;0.00E+00;2.38E-09;1.26E-09;0.00E+00;4.13E-09
495.475;38.26268;39.15396;38.28074;0;0.001581301;0.004429737;0.00E+00;0.00E+00;0;0.00E+00;0.00E+00;1.36E-12;4.37493E-13;0;1.80E-12;4.00E-16;0.00E+00;0;0.00E+00;0.00E+00;2.06E-12;8.74453E-11;0;8.95E-11;0.00E+00;3.38E-10;0.00E+00;0.00E+00;0.00E+00;1.11E-09;4.83E-10;0.00E+00;1.93E-09
497.384;38.26268;39.14677;38.27651;-0.0769278;-0.0787053;-0.0769556;0;0;0;0;0;9.91076E-13;2.98582E-13;0;1.28966E-12;3.19744E-16;0;0;0;0;1.40598E-12;5.9683E-11;0;6.10893E-11;0;2.79203E-10;0;0;0;7.56288E-10;2.99663E-10;0;1.33515E-09