File: src/TGA/NH4Cl_TGA.csv
temperature,rate_3,rate_5,rate_10,rate_3_diff,rate_5_diff,rate_10_diff,rate_3_diff_reaction_0,rate_3_diff_reaction_1,rate_3_diff_reaction_2,rate_3_diff_reaction_3,rate_3_diff_cumulative,rate_5_diff_reaction_0,rate_5_diff_reaction_1,rate_5_diff_reaction_2,rate_5_diff_reaction_3,rate_5_diff_cumulative,rate_10_diff_reaction_0,rate_10_diff_reaction_1,rate_10_diff_reaction_2,rate_10_diff_reaction_3,rate_10_diff_cumulative
30.278,100,100,100,0.561519,-0.502759,0.394697,2.96E-06,6.45E-12,3.74E-95,2.09E-30,2.96E-06,5.24E-07,9.72E-11,3.39E-118,2.40E-35,5.24E-07,7.86E-07,4.40E-10,2.72E-154,1.17E-25,7.87E-07
33.14274,99.46862,100.497,99.64153,0.002387653,-0.000696387,-0.0100166,3.47E-06,8.59E-12,2.89E-94,3.76E-30,3.47E-06,6.20E-07,1.23E-10,3.69E-117,4.53E-35,6.20E-07,9.14E-07,5.40E-10,4.77E-153,1.77E-25,9.15E-07
36.00749,99.47067,100.496,99.67159,-0.003817108,0.002288146,-0.003293459,4.07E-06,1.14E-11,2.24E-93,6.74E-30,4.07E-06,7.34E-07,1.57E-10,4.01E-116,8.56E-35,7.34E-07,1.06E-06,6.62E-10,8.38E-152,2.66E-25,1.06E-06
38.87223,99.48353,100.521,99.68218,0.002136319,-0.003220265,-0.005712549,4.77E-06,1.52E-11,1.73E-92,1.21E-29,4.77E-06,8.69E-07,1.99E-10,4.37E-115,1.62E-34,8.69E-07,1.24E-06,8.12E-10,1.47E-150,4.00E-25,1.24E-06
41.73698,99.47877,100.497,99.6908,-0.000570729,-0.001460856,-0.000141358,5.59E-06,2.03E-11,1.34E-91,2.17E-29,5.59E-06,1.03E-06,2.53E-10,4.76E-114,3.06E-34,1.03E-06,1.44E-06,9.97E-10,2.58E-149,6.03E-25,1.44E-06
44.60172,99.48014,100.493,99.68903,0.009330675,-0.003078779,-0.002193918,6.55E-06,2.70E-11,1.04E-90,3.89E-29,6.55E-06,1.22E-06,3.21E-10,5.18E-113,5.78E-34,1.22E-06,1.67E-06,1.22E-09,4.52E-148,9.08E-25,1.67E-06
47.46647,99.48342,100.512,99.70026,-0.003340626,-0.004246433,0.00013615,7.69E-06,3.60E-11,8.04E-90,6.99E-29,7.69E-06,1.44E-06,4.07E-10,5.63E-112,1.09E-33,1.44E-06,1.94E-06,1.50E-09,7.94E-147,1.37E-24,1.94E-06
50.33121,99.48889,100.509,99.70773,-0.002979325,0.001591794,0.002413803,9.01E-06,4.79E-11,6.22E-89,1.25E-28,9.01E-06,1.70E-06,5.17E-10,6.13E-111,2.07E-33,1.71E-06,2.26E-06,1.84E-09,1.39E-145,2.06E-24,2.26E-06
53.19596,99.47606,100.508,99.70097,-3.49285E-08,0.005063296,0.000979158,1.06E-05,6.38E-11,4.81E-88,2.25E-28,1.06E-05,2.02E-06,6.57E-10,6.67E-110,3.90E-33,2.02E-06,2.63E-06,2.26E-09,2.44E-144,3.10E-24,2.63E-06
56.0607,99.49524,100.521,99.69343,-0.005094715,-0.00427268,-0.00176454,1.24E-05,8.50E-11,3.72E-87,4.04E-28,1.24E-05,2.39E-06,8.34E-10,7.26E-109,7.38E-33,2.39E-06,3.05E-06,2.77E-09,4.29E-143,4.67E-24,3.06E-06
58.92545,99.50199,100.508,99.69727,-0.0102888,-1.68337E-08,0.007492804,1.45E-05,1.13E-10,2.88E-86,7.24E-28,1.45E-05,2.83E-06,1.06E-09,7.91E-108,1.39E-32,2.83E-06,3.55E-06,3.40E-09,7.52E-142,7.02E-24,3.55E-06
61.79019,99.51169,100.512,99.7027,-0.000958193,0.000607378,-0.004325,1.70E-05,1.51E-10,2.23E-85,1.30E-27,1.70E-05,3.34E-06,1.34E-09,8.60E-107,2.64E-32,3.35E-06,4.13E-06,4.18E-09,1.32E-140,1.06E-23,4.13E-06
64.65494,99.51532,100.512,99.70857,0.002141551,-0.000932003,-0.002864126,2.00E-05,2.01E-10,1.73E-84,2.33E-27,2.00E-05,3.96E-06,1.71E-09,9.37E-106,4.98E-32,3.96063E-06,4.80E-06,5.12E-09,2.31E-139,1.59E-23,4.81E-06
67.51968,99.51303,100.51,99.71397,-0.002183444,-2.30298E-09,0.003534316,2.34E-05,2.67E-10,1.34E-83,4.18E-27,2.34E-05,4.69E-06,2.17E-09,1.02E-104,9.42E-32,4.68772E-06,5.58E-06,6.29E-09,4.06E-138,2.40E-23,5.59E-06
70.38443,99.50573,100.51,99.69667,-0.002659937,0.000685928,0.002874595,2.75E-05,3.56E-10,1.03E-82,7.51E-27,2.75E-05,5.55E-06,2.75E-09,1.11E-103,1.78E-31,5.54831E-06,6.49E-06,7.71E-09,7.12E-137,3.61E-23,6.50E-06
73.24917,99.52174,100.502,99.6939,-0.006215221,-0.001193813,-0.002644209,3.22E-05,4.74E-10,8.00E-82,1.35E-26,3.22E-05,6.56E-06,3.49E-09,1.21E-102,3.36E-31,6.5669E-06,7.55E-06,9.47E-09,1.25E-135,5.44E-23,7.55E-06
76.11392,99.51669,100.514,99.70996,-0.000544563,0.002162519,-0.009430161,3.77E-05,6.31E-10,6.19E-81,2.42E-26,3.77452E-05,7.77E-06,4.43E-09,1.31E-101,6.36E-31,7.77251E-06,8.77E-06,1.16E-08,2.19E-134,8.19E-23,8.79E-06
78.97866,99.52537,100.503,99.71946,-0.000958213,0.000612626,0.003492441,4.43E-05,8.41E-10,4.79E-80,4.34E-26,4.42565E-05,9.19E-06,5.63E-09,1.43E-100,1.20E-30,9.19947E-06,1.02E-05,1.43E-08,3.85E-133,1.23E-22,1.02E-05
81.84341,99.53496,100.5,99.70359,0.008896119,-0.001544651,0.001685999,5.19E-05,1.12E-09,3.71E-79,7.78E-26,5.18909E-05,1.09E-05,7.15E-09,1.56E-99,2.27E-30,1.08884E-05,1.19E-05,1.75E-08,6.75E-132,1.86E-22,1.19E-05
84.70815,99.52401,100.5042,99.71234,0.002680796,0.002277697,-0.001267133,6.08E-05,1.49E-09,2.87E-78,1.40E-25,6.08422E-05,1.29E-05,9.07E-09,1.69E-98,4.29E-30,1.28875E-05,1.38E-05,2.15E-08,1.18E-130,2.79E-22,1.38E-05
87.5729,99.51166,100.507,99.71433,-0.005262266,0.001827412,-0.003513407,7.13E-05,1.99E-09,2.22E-77,2.51E-25,7.13374E-05,1.52E-05,1.15E-08,1.84E-97,8.11E-30,1.52537E-05,1.60E-05,2.63E-08,2.08E-129,4.21E-22,1.61E-05
90.43764,99.52583,100.51,99.72162,-0.002628502,-0.004120801,-0.003073577,8.36E-05,2.64E-09,1.72E-76,4.50E-25,8.36427E-05,1.80E-05,1.46E-08,2.01E-96,1.53E-29,1.80543E-05,1.86E-05,3.23E-08,3.65E-128,6.33E-22,1.87E-05
93.30239,99.53496,100.506,99.72825,-0.001434675,-0.002157287,-0.000853475,9.81E-05,3.52E-09,1.33E-75,8.07E-25,9.80704E-05,2.14E-05,1.86E-08,2.18E-95,2.90E-29,2.13692E-05,2.17E-05,3.96E-08,6.40E-127,9.54E-22,2.17E-05
96.16713,99.53405,100.512,99.72883,0.000952964,-0.001141455,0.006162833,1.15E-04,4.69E-09,1.03E-74,1.45E-24,0.000114986,2.53E-05,2.36E-08,2.38E-94,5.48E-29,2.52928E-05,2.52E-05,4.87E-08,1.12E-125,1.44E-21,2.53E-05
99.03188,99.52483,100.521,99.71778,-0.003104995,-0.002288159,0.000664984,1.35E-04,6.25E-09,7.96E-74,2.60E-24,0.000134819,2.99E-05,2.99E-08,2.59E-93,1.04E-28,2.99369E-05,2.93E-05,5.97E-08,1.97E-124,2.16E-21,2.94E-05
101.897,99.54275,100.518,99.7136,-0.002293432,-0.001403271,-0.001534153,1.58E-04,8.32E-09,6.16E-73,4.66E-24,0.000158072,3.54E-05,3.80E-08,2.82E-92,1.96E-28,3.54339E-05,3.41E-05,7.33E-08,3.45E-123,3.26E-21,3.42E-05
104.761,99.53855,100.524,99.72157,-0.002392883,-0.008686656,-0.001518463,1.85E-04,1.11E-08,4.77E-72,8.36E-24,0.000185335,4.19E-05,4.82E-08,3.07E-91,3.70E-28,4.19403E-05,3.96E-05,8.99E-08,6.06E-122,4.90E-21,3.97E-05
107.626,99.52628,100.536,99.71995,0.005115647,0.00372283,0.003309196,2.17E-04,1.48E-08,3.69E-71,1.50E-23,0.000217297,4.96E-05,6.13E-08,3.34E-90,6.99E-28,4.96416E-05,4.61E-05,1.10E-07,1.06E-120,7.38E-21,4.62E-05
110.491,99.5409,100.517,99.71523,-0.004068391,0.003607658,-0.004173173,2.55E-04,1.96E-08,2.86E-70,2.69E-23,0.00025477,5.87E-05,7.78E-08,3.63E-89,1.32E-27,5.87573E-05,5.36E-05,1.35E-07,1.87E-119,1.11E-20,5.37E-05
113.3556,99.53405,100.512,99.72332,0.00119383,0.002974083,0.000879659,0.000298676,2.62E-08,2.21E-69,4.83E-23,0.000298702,6.94E-05,9.87E-08,3.95E-88,2.50E-27,6.95471E-05,6.23E-05,1.66E-07,3.27E-118,1.67E-20,6.24E-05
116.22,99.54039,100.507,99.72447,-0.003827566,-0.00137185,-0.00178549,0.00035017,3.48E-08,1.71E-68,8.67E-23,0.000350205,8.22E-05,1.25E-07,4.30E-87,4.72E-27,8.23185E-05,7.24E-05,2.04E-07,5.74E-117,2.52E-20,7.26E-05
119.085,99.53816,100.496,99.72239,0.002209625,0.007309582,-0.000644031,0.000410536,4.64E-08,1.32E-67,1.56E-22,0.000410582,9.73E-05,1.59E-07,4.68E-86,8.92E-27,9.74355E-05,8.42E-05,2.50E-07,1.01E-115,3.79E-20,8.45E-05
121.95,99.53079,100.4968,99.72781,0.005503104,-0.000230386,-0.001979235,0.0004813,6.18E-08,1.02E-66,2.79E-22,0.000481361,1.15E-04,2.02E-07,5.10E-85,1.69E-26,0.000115329,9.79E-05,3.07E-07,1.77E-114,5.71E-20,9.82077E-05
124.815,99.50984,100.495,99.73244,0.006456103,0.001827388,-1.57104E-05,0.000564248,8.23E-08,7.93E-66,5.01E-22,0.00056433,0.000136252,2.57E-07,5.55E-84,3.19E-26,0.000136508,1.14E-04,3.76E-07,3.10E-113,8.60E-20,0.000114206
127.679,99.51258,100.489,99.73747,-0.003738538,0.001602236,-0.001115263,0.000661475,1.10E-07,6.14E-65,8.99E-22,0.000661585,0.000161252,3.26E-07,6.04E-83,6.02E-26,0.000161578,1.32E-04,4.62E-07,5.44E-112,1.30E-19,0.00013281
130.544,99.51486,100.488,99.72995,-0.000235624,0.000455536,0.002162498,0.000775433,1.46E-07,4.75E-64,1.61E-21,0.000775579,0.000190838,4.14E-07,6.57E-82,1.14E-25,0.000191251,1.54E-04,5.67E-07,9.54E-111,1.95E-19,0.000154446
133.409,99.51669,100.482,99.72825,0.009707674,0.003649537,-0.000109958,0.000908991,1.94E-07,3.67E-63,2.89E-21,0.000909185,0.000225849,5.25E-07,7.15E-81,2.15E-25,0.000226374,0.000178911,6.96E-07,1.67E-109,2.94E-19,0.000179606
136.274,99.49842,100.474,99.72296,0.00358671,-0.003890378,0.002199164,0.001065509,2.59E-07,2.84E-62,5.19E-21,0.001065767,0.00026728,6.67E-07,7.78E-80,4.07E-25,0.000267946,0.000208013,8.54E-07,2.94E-108,4.42E-19,0.000208867
139.138,99.50983,100.4732,99.72407,0.003104985,0.004319755,-0.003722864,0.001248917,3.45E-07,2.20E-61,9.32E-21,0.001249262,0.000316306,8.46E-07,8.47E-79,7.69E-25,0.000317152,0.000241847,1.05E-06,5.15E-107,6.66E-19,0.000242894
142.003,99.5071,100.462,99.73662,0.000952962,0.001591771,-0.002188679,0.001463813,4.59E-07,1.70E-60,1.67E-20,0.001464272,0.000374318,1.07E-06,9.22E-78,1.45E-24,0.000375393,0.000281181,1.29E-06,9.04E-106,1.00E-18,0.000282466
144.8678,99.49385,100.462,99.73872,-0.001502774,0,0.000659748,0.001715572,6.11E-07,1.32E-59,3.00E-20,0.001716183,0.00044296,1.36E-06,1.00E-76,2.75E-24,0.000444325,0.000326907,1.58E-06,1.59E-104,1.51E-18,0.000328484
147.733,99.49328,100.462,99.73035,-0.001199013,0,0.00149228,0.002010473,8.14E-07,1.02E-58,5.38E-20,0.002011287,0.000524176,1.73E-06,1.09E-75,5.19E-24,0.000525909,0.000380064,1.94E-06,2.78E-103,2.27E-18,0.000381999
150.597,99.50299,100.448,99.727,0.004560639,0.007089601,0.000434591,0.002355855,1.08E-06,7.89E-58,9.66E-20,0.002356939,0.000620265,2.20E-06,1.19E-74,9.81E-24,0.000622464,0.000441856,2.37E-06,4.88E-102,3.42E-18,0.00044423
153.462,99.49255,100.447,99.73663,0.005026631,0.000460774,-0.000654517,0.002760276,1.44E-06,6.11E-57,1.73E-19,0.002761719,0.000733941,2.79E-06,1.29E-73,1.85E-23,0.000736733,0.000513683,2.91E-06,8.57E-101,5.15E-18,0.000516597
156.327,99.47329,100.443,99.73362,0.007414276,0.00137185,0.001094339,0.00323372,1.92E-06,4.73E-56,3.11E-19,0.003235643,0.000868414,3.55E-06,1.41E-72,3.51E-23,0.000871959,0.000597172,3.58E-06,1.50E-99,7.76E-18,0.000600747
159.192,99.47101,100.439,99.73035,0,0.002974081,0.001094337,0.003787817,2.56E-06,3.66E-55,5.58E-19,0.003790377,0.001027472,4.50E-06,1.53E-71,6.62E-23,0.001031974,0.00069421,4.39E-06,2.64E-98,1.17E-17,0.000698597
162.056,99.45735,100.427,99.72825,0.0114408,0.007550419,0,0.004436104,3.41E-06,2.83E-54,1.00E-18,0.004439513,0.001215592,5.72E-06,1.67E-70,1.25E-22,0.001221308,0.000806989,5.38E-06,4.63E-97,1.76E-17,0.000812372
164.921,99.43046,100.416,99.72825,0.0109486,0.003701881,0,0.005194306,4.54E-06,2.19E-53,1.80E-18,0.005198847,0.001438053,7.26E-06,1.82E-69,2.37E-22,0.00144531,0.000938053,6.61E-06,8.12E-96,2.65E-17,0.000944658
167.786,99.40477,100.3963,99.72825,0.005204649,0.005194184,0,0.006080682,6.05E-06,1.70E-52,3.22E-18,0.006086729,0.001701085,9.21E-06,1.98E-68,4.47E-22,0.001710298,0.001090354,8.11E-06,1.42E-94,3.99E-17,0.00109846
170.6505,99.40066,100.385,99.72742,0.001816902,0.003214939,0.000387469,0.007116368,8.05E-06,1.31E-51,5.79E-18,0.007124422,0.002012029,1.17E-05,2.15E-67,8.45E-22,0.002023726,0.001267316,9.95E-06,2.50E-93,6.00E-17,0.001277262
173.515,99.36366,100.364,99.72574,0.0123728,0.0108334,0.00043983,0.008325811,1.07E-05,1.02E-50,1.04E-17,0.008336536,0.002379535,1.49E-05,2.34E-66,1.60E-21,0.002394385,0.001472908,1.22E-05,4.38E-92,9.04E-17,0.001485112
176.38,99.33657,100.345,99.71355,0.01648837,0.005031859,0.007241493,0.009737175,1.43E-05,7.86E-50,1.86E-17,0.009751458,0.002813778,1.89E-05,2.55E-65,3.02E-21,0.002832633,0.00171173,1.50E-05,7.69E-91,1.36E-16,0.001726705
179.245,99.28691,100.335,99.70271,0.0148285,0.00462347,-0.000450307,0.0113829,1.90E-05,6.08E-49,3.34E-17,0.0114019,0.003326729,2.39E-05,2.77E-64,5.71E-21,0.003350667,0.001989112,1.84E-05,1.35E-89,2.05E-16,0.002007488
182.109,99.23537,100.306,99.7069,0.0128965,0.006429878,0.004607716,0.01329995,2.53E-05,4.71E-48,6.00E-17,0.01332528,0.003932433,3.04E-05,3.02E-63,1.08E-20,0.003962826,0.00231122,2.25E-05,2.37E-88,3.08E-16,0.002333768
184.974,99.19057,100.279,99.69082,0.0162475,0.00853479,0.002602323,0.0155308,3.37E-05,3.64E-47,1.08E-16,0.0155645,0.004647368,3.86E-05,3.28E-62,2.04E-20,0.004685956,0.002685192,2.77E-05,4.15E-87,4.64E-16,0.002712859
187.839,99.14296,100.256,99.68385,0.0276726,0.009341144,0.00308404,0.0181234,4.49232E-05,2.82E-46,1.93E-16,0.01816831,0.00549081,4.90E-05,3.58E-61,3.85E-20,0.005539803,0.003119269,3.39E-05,7.29E-86,6.99E-16,0.003153219
190.704,99.0794,100.216,99.67089,0.0214941,0.0132735,0.006283294,0.021132,5.98249E-05,2.18E-45,3.46E-16,0.02119182,0.006485286,6.22E-05,3.89E-60,7.28E-20,0.006547488,0.003622975,4.17E-05,1.28E-84,1.05E-15,0.003664633
193.568,99.00489,100.157,99.64727,0.025374,0.0123833,0.006958738,0.0246173,7.96695E-05,1.69E-44,6.22E-16,0.024697,0.007657026,7.90E-05,4.24E-59,1.38E-19,0.007735999,0.004207285,5.11E-05,2.24E-83,1.59E-15,0.004258402
196.433,98.93284,100.118,99.62776,0.0388674,0.0189022,0.00389563,0.028647,0.000106096,1.31E-43,1.12E-15,0.0287531,0.009036521,1.00E-04,4.61E-58,2.60E-19,0.009136787,0.004884848,6.27E-05,3.94E-82,2.39E-15,0.004947572
199.298,98.82377,100.07,99.6106,0.0342229,0.0195253,0.0107863,0.0332952,0.000141289,1.01E-42,2.00E-15,0.03343653,0.010659,1.27E-04,5.02E-57,4.92E-19,0.0107863,0.005670198,7.70E-05,6.90E-81,3.59E-15,0.005747163
202.1627,98.71237,100.004,99.57873,0.0439463,0.0249394,0.0114617,0.03864286,0.000188153,7.82E-42,3.59E-15,0.038831,0.0125653,1.62E-04,5.46E-56,9.30E-19,0.0127269,0.006580028,9.44E-05,1.21E-79,5.41E-15,0.006674469
205.027,98.58647,99.9299,99.5549,0.0552457,0.026306,0.007587056,0.0447763,0.000250561,6.05425E-41,6.44E-15,0.0450269,0.01480193,2.05E-04,5.94E-55,1.76E-18,0.0150071,0.007633443,1.16E-04,2.13E-78,8.15E-15,0.007749327
207.892,98.44898,99.85845,99.52352,0.0552353,0.0290445,0.0131949,0.0517866,0.000333664,4.68528E-40,1.16E-14,0.05212028,0.0174222,2.61E-04,6.47E-54,3.32E-18,0.0176827,0.008852286,1.42E-04,3.73E-77,1.23E-14,0.008994481
210.757,98.26963,99.76761,99.48788,0.0737239,0.0349141,0.0134043,0.0597671,0.000444324,3.62583E-39,2.07E-14,0.0602114,0.0204862,3.31E-04,7.04045E-53,6.28E-18,0.020817,0.0102614,1.74E-04,6.54E-76,1.85E-14,0.0104359
213.622,98.07913,99.658,99.44773,0.061618,0.0391919,0.0159752,0.0688108,0.000591674,2.80597E-38,3.72E-14,0.0694025,0.0240617,4.20E-04,7.66281E-52,1.19E-17,0.0244816,0.0118891,2.14E-04,1.15E-74,2.78E-14,0.0121032
216.486,97.88069,99.54506,99.40501,0.0792165,0.0390558,0.0216564,0.0790068,0.00078787,2.17147E-37,6.68E-14,0.0797947,0.02822375,5.33E-04,8.34011E-51,2.24E-17,0.0287568,0.0137672,0.000262696,2.01E-73,4.19E-14,0.01402989
219.351,97.63777,99.42538,99.35267,0.0969406,0.048397,0.01941536,0.0904353,0.001049091,1.68046E-36,1.20E-13,0.0914844,0.0330546,6.77E-04,9.07736E-50,4.24E-17,0.03373142,0.0159317,0.000322334,3.53E-72,6.31E-14,0.016254
222.216,97.35324,99.27461,99.28228,0.0998309,0.0591519,0.0248713,0.103162,0.001396859,1.30047E-35,2.15E-13,0.104559,0.0386432,0.000859185,9.8797E-49,8.01E-17,0.03950236,0.0184227,0.000395508,6.20E-71,9.50E-14,0.0188182
225.081,97.04345,99.09593,99.21014,0.126964,0.0623249,0.0277407,0.117233,0.001859806,1.00641E-34,3.86E-13,0.119092,0.0450834,0.001090717,1.0753E-47,1.51E-16,0.0461741,0.02128498,0.000485288,1.08749E-69,1.43E-13,0.0217703
227.9454,96.70436,98.90905,99.13042,0.126236,0.07500667,0.02933766,0.132664,0.002475993,7.7884E-34,6.93E-13,0.13514,0.0524721,0.001384594,1.17035E-46,2.86E-16,0.0538567,0.0245678,0.000595441,1.90795E-68,2.15E-13,0.0251632
230.81,96.32935,98.6899,99.04364,0.151956,0.0876099,0.0325055,0.14944,0.003296005,6.02731E-33,1.24E-12,0.152736,0.0609059,0.001757579,1.2738E-45,5.41E-16,0.0626635,0.0283249,0.000730588,3.34744E-67,3.24E-13,0.0290555
233.675,95.88332,98.45575,98.93039,0.156815,0.0748914,0.0412026,0.167504,0.004386998,4.6644E-32,2.23E-12,0.171891,0.070477,0.00223092,1.38639E-44,1.02E-15,0.0727079,0.0326145,0.000896391,5.87291E-66,4.88E-13,0.0335109
236.54,95.4013,98.19209,98.80277,0.186928,0.106706,0.049151,0.186754,0.005838079,3.6097E-31,4.00E-12,0.192592,0.0812672,0.002831547,1.50895E-43,1.93E-15,0.0840988,0.0374986,0.0010998,1.03038E-64,7.35E-13,0.0385984
239.404,94.84879,97.86735,98.66464,0.204332,0.111088,0.0521093,0.207044,0.007767279,2.79346E-30,7.18E-12,0.214812,0.0933418,0.003593567,1.64232E-42,3.65E-15,0.0969354,0.0430421,0.001349329,1.80775E-63,1.11E-12,0.0443914
242.269,94.24408,97.52799,98.5026,0.226544,0.128278,0.0599006,0.228181,0.0103307,2.16181E-29,1.29E-11,0.238512,0.106742,0.004560167,1.7875E-41,6.90E-15,0.111302,0.0493117,0.00165542,3.17164E-62,1.67E-12,0.0509672
245.134,93.56928,97.13828,98.30882,0.252316,0.150736,0.0730013,0.249931,0.0137344,1.67298E-28,2.31E-11,0.263666,0.121476,0.005785957,1.94549E-40,1.30E-14,0.127262,0.056374,0.002030862,5.56449E-61,2.51E-12,0.0584049
247.999,92.81093,96.70531,98.11747,0.271453,0.156391,0.063503,0.272027,0.0182494,1.29469E-27,4.15E-11,0.290277,0.137515,0.007339961,2.11747E-39,2.47E-14,0.144855,0.06429314,0.002491331,9.76271E-60,3.78E-12,0.0667845
250.863,91.96754,96.24748,97.90818,0.310033,0.167266,0.08144702,0.294176,0.0242308,1.00193E-26,7.44E-11,0.318407,0.154781,0.009309261,2.30463E-38,4.66E-14,0.16409,0.073128,0.003056018,1.71282E-58,5.69E-12,0.076184
253.728,91.05397,95.74721,97.6665,0.335711,0.187546,0.0865365,0.316073,0.03214113,7.75375E-26,1.34E-10,0.348214,0.173149,0.0118036,2.50836E-37,8.81E-14,0.184953,0.0829288,0.00374842,3.00508E-57,8.56E-12,0.0866772
256.593,89.98949,95.16733,97.39913,0.38271,0.209888,0.0984538,0.337406,0.0425789,6.00045E-25,2.40E-10,0.379985,0.192444,0.01496092,2.73007E-36,1.66E-13,0.207405,0.0937329,0.004597276,5.27226E-56,1.29E-11,0.0983302
259.4576,88.8655,94.52432,97.08852,0.416435,0.240461,0.139363,0.357864,0.0563106,4.64364E-24,4.30E-10,0.414174,0.212446,0.0189542,2.9714E-35,3.15E-13,0.2314,0.105561,0.005637734,9.25001E-55,1.94E-11,0.111198
262.322,87.61111,93.78135,96.75924,0.472141,0.27049,0.113513,0.377134,0.0743048,3.59361E-23,7.71E-10,0.451439,0.232895,0.0239997,3.23403E-34,5.95E-13,0.256894,0.118411,0.006912715,1.62287E-53,2.92E-11,0.125324
265.187,86.21793,92.99861,96.35851,0.506118,0.285649,0.132452,0.394897,0.0977635,2.78103E-22,1.38E-09,0.49266,0.253508,0.0303663,3.51992E-33,1.12E-12,0.283874,0.132259,0.008474616,2.84727E-52,4.40E-11,0.140733
268.052,84.69048,92.13673,95.95109,0.568228,0.323039,0.155433,0.410801,0.128142,2.15217E-21,2.48E-09,0.538943,0.27399,0.0383869,3.83104E-32,2.12E-12,0.312377,0.147048,0.0103873,4.99538E-51,6.63E-11,0.157435
270.917,82.97344,91.17711,95.48835,0.614746,0.345602,0.17455,0.424436,0.167141,1.66553E-20,4.46E-09,0.591577,0.294051,0.0484705,4.16969E-31,4.02E-12,0.342522,0.1626941,0.0127284,8.76423E-50,9.98E-11,0.175423
273.781,81.12605,90.13767,94.95677,0.667342,0.383699,0.185294,0.43528,0.216654,1.28891E-19,8.00E-09,0.651933,0.31342,0.0611149,4.53824E-30,7.59E-12,0.374535,0.179082,0.0155924,1.53764E-48,1.50E-10,0.194674
276.646,79.12811,88.99158,94.40691,0.743642,0.429797,0.212286,0.442643,0.278634,9.97464E-19,1.44E-08,0.721277,0.331856,0.0769194,4.93941E-29,1.43E-11,0.408776,0.1960673,0.0190935,2.69774E-47,2.26E-10,0.215161
279.511,76.9138,87.73168,93.76714,0.804475,0.461633,0.233555,0.445607,3.55E-01,7.71911E-18,2.57E-08,0.800473,0.349155,0.0965938,5.376E-28,2.71E-11,0.445749,0.213481,0.02337009,4.73304E-46,3.41E-10,0.236851
282.376,74.47291,86.33202,93.10613,0.894231,0.509873,0.243969,0.44298,4.47E-01,5.97E-17,4.62E-08,0.889601,0.365149,0.120963,5.85123E-27,5.12E-11,0.486112,0.231136,0.0285884,8.30397E-45,5.13E-10,0.259725
285.2403,71.77826,84.83301,92.34125,0.981061,0.550672,0.280507,0.433334,5.54E-01,4.62E-16,8.29E-08,0.98756,0.379705,0.15096,6.36841E-26,9.69E-11,0.530665,0.248834,0.0349479,1.45689E-43,7.72E-10,0.283782
288.105,68.89053,83.17704,91.50468,1.06149,0.598362,0.303451,0.415184,6.77E-01,3.58E-15,1.49E-07,1.09183,0.392708,0.187602,6.93136E-25,1.83E-10,0.58031,0.266375,0.0426864,2.55606E-42,1.16E-09,0.309061
290.97,65.73334,81.33636,90.59359,1.14518,0.667824,0.341413,0.387406,8.11E-01,2.77E-14,2.67E-07,1.19859,0.404047,2.32E-01,7.54401E-24,3.46E-10,0.635992,0.283564,0.0520855,4.48448E-41,1.75E-09,0.335649
293.835,62.31771,79.36293,89.58747,1.24988,0.719242,0.374416,0.349878,9.54E-01,2.14E-13,4.79E-07,1.30344,0.413586,2.85E-01,8.21E-23,6.54E-10,0.69859,0.300223,0.0634758,7.86787E-40,2.64E-09,0.363699
296.699,58.62307,77.20094,88.47506,1.31776,0.791526,0.39992,0.304117,1.10E+00,1.66E-12,8.59E-07,1.40244,0.421133,3.48E-01,8.94E-22,1.24E-09,0.768774,0.316193,0.0772416,1.38038E-38,3.97E-09,0.393435
299.564,54.569,74.86239,87.30701,1.46404,0.858124,0.437882,0.253453,1.24E+00,1.28E-11,1.54E-06,1.49308,0.426395,4.20E-01,9.73E-21,2.34E-09,0.846811,0.331343,0.0938237,2.42183E-37,5.98E-09,0.425167
302.429,50.40399,72.32263,85.96928,1.52182,0.910516,0.474911,0.202364,1.37E+00,9.93E-11,2.77E-06,1.57456,0.428931,5.03E-01,1.06E-19,4.42E-09,0.93235,0.345567,0.113719,4.24897E-36,9.00E-09,0.459286
305.294,45.70633,69.56792,84.57764,1.63505,1.00945,0.515727,0.155173,1.49E+00,7.68E-10,4.96E-06,1.64718,0.428091,5.96E-01,1.15E-18,8.35E-09,1.02421,0.358786,0.137477,7.45468E-35,1.35E-08,0.496262
308.158,40.92822,66.56911,83.01113,1.73179,1.08555,0.566197,0.114856,1.60E+00,5.94E-09,8.91E-06,1.71155,0.422979,6.97E-01,1.25E-17,1.58E-08,1.12022,0.370943,1.66E-01,1.30789E-33,2.04E-08,0.536629
311.023,35.92921,63.37051,81.32755,1.79409,1.16643,0.613767,0.08259,1.69E+00,4.60E-08,1.60E-05,1.76809,0.412451,8.05E-01,1.36E-16,2.98E-08,1.21721,0.381998,1.99E-01,2.29464E-32,3.07E-08,0.580954
313.888,30.63379,59.92364,79.50309,1.85555,1.19206,0.664279,0.0580706,1.76E+00,3.55E-07,2.87E-05,1.81702,0.3952247,9.16E-01,1.49E-15,5.63E-08,1.31125,0.391914,2.38E-01,4.02583E-31,4.62E-08,0.629797
316.7525,25.31746,56.26168,77.53242,1.86331,1.32122,0.712388,0.0401548,1.82E+00,2.75E-06,5.15E-05,1.85819,0.370162,1.03E+00,1.62E-14,1.07E-07,1.39813,0.400641,2.83E-01,7.06319E-30,6.96E-08,0.683652
319.617,19.97786,52.36078,75.37068,1.80484,1.39882,0.786143,0.027434,1.86E+00,2.12E-05,9.23E-05,1.88488,0.336774,1.14E+00,1.76E-13,2.01E-07,1.47422,0.408099,3.35E-01,1.2392E-28,1.05E-07,0.742864
322.482,14.97925,48.24276,73.04978,1.7174,1.50115,0.844295,0.0185842,1.76E+00,0.000163607,1.66E-04,1.78005,0.295817,1.24E+00,1.92E-12,3.80E-07,1.53741,0.414139,3.93E-01,2.17414E-27,1.58E-07,0.807531
325.347,10.50329,43.76446,70.59556,1.37532,1.61541,0.88776,1.25E-02,8.00E-01,0.001251294,2.97E-04,0.814285,2.50E-01,1.34E+00,2.08E-11,7.19E-07,1.58775,0.418499,4.59E-01,3.81E-26,2.38E-07,0.877385
328.211,7.88017,39.04194,67.93341,0.227145,1.67211,0.95886,8.39E-03,7.57E-02,0.009094962,5.32E-04,0.0937264,2.02E-01,1.43E+00,2.27E-10,1.36E-06,1.62734,0.420739,5.31E-01,6.69E-25,3.58E-07,0.95166
331.076,7.77546,34.26682,65.11932,0.0666184,1.69101,1.01374,5.61E-03,4.52E-03,0.0489942,9.53E-04,0.0600774,1.57E-01,1.50E+00,2.47E-09,2.57E-06,1.65934,0.420153,6.09E-01,1.17E-23,5.39E-07,1.02896
333.941,7.50004,29.3835,62.09445,0.119346,1.70562,1.08371,3.75E-03,2.60E-04,0.11323,1.70E-03,0.118938,1.17E-01,1.57E+00,2.69E-08,4.86E-06,1.68675,0.415665,6.91E-01,2.06E-22,8.11E-07,1.10713
336.806,7.11347,24.41698,58.67605,0.137766,1.72657,1.14487,2.50E-03,1.49E-05,0.133866,0.003033287,0.139411,8.51E-02,1.63E+00,2.92E-07,9.18E-06,1.7113,0.405762,7.78E-01,3.61E-21,1.22E-06,1.18326
339.67,6.72612,19.51803,55.37981,0.139588,1.70454,1.1727,1.66E-03,8.51E-07,0.132743,0.005374621,0.139781,6.02E-02,1.67E+00,3.18E-06,1.73E-05,1.72973,0.388539,8.65E-01,6.34E-20,1.84E-06,1.25378
342.5352,6.32646,14.76327,51.96083,0.14052,1.57268,1.34331,1.11E-03,4.87E-08,0.126278,0.009431994,0.136816,4.18E-02,1.63E+00,3.45E-05,3.28E-05,1.67203,0.362055,9.53E-01,1.11E-18,2.77E-06,1.31492
345.4,5.92218,10.68219,48.16242,0.146563,1.14033,1.28117,7.36E-04,2.78E-09,1.17E-01,1.63E-02,0.133885,2.86E-02,9.17E-01,0.000374377,6.19E-05,0.946194,0.32516,1.04E+00,1.95E-17,4.17E-06,1.36374
348.265,5.50408,9.13682,44.30513,0.135986,0.0196511,1.40016,4.89E-04,1.59E-10,1.05E-01,2.74E-02,0.132524,1.94E-02,1.05E-01,0.003957817,0.000117032,0.128598,0.278677,1.12E+00,3.42E-16,6.28E-06,1.39942
351.129,5.09316,9.13987,40.33651,0.142945,0.0261961,1.42116,3.25E-04,9.06E-12,9.01E-02,4.40E-02,0.13445,1.31E-02,6.42E-03,0.0334573,0.000221062,0.05318428,0.226196,1.20E+00,6.01E-15,9.45E-06,1.42418
353.994,4.69208,8.95093,36.18157,0.155265,0.0938617,1.45809,2.16E-04,5.17E-13,7.40E-02,6.67E-02,0.140992,8.78E-03,3.71E-04,0.106585,0.000417335,0.116149,0.173418,1.27E+00,1.05E-13,1.42E-05,1.44269
356.859,4.27547,8.62869,32.0287,0.147065,0.113356,1.46844,1.44E-04,2.96E-14,5.80E-02,9.36E-02,0.15176,5.87E-03,2.13E-05,1.32E-01,0.000787059,0.138833,0.126004,1.33E+00,1.85E-12,2.14E-05,1.45993
359.724,3.79537,8.27337,27.84142,0.170633,0.131624,1.488656,9.54E-05,1.80E-15,4.34E-02,1.21E-01,0.164212,3.92E-03,1.22E-06,1.33E-01,1.48E-03,0.138197,8.75E-02,1.39E+00,3.24E-11,3.23E-05,1.47898
362.588,3.28231,7.87573,23.53881,0.186142,0.15172,1.51224,6.34E-05,0.00E+00,3.12E-02,1.44E-01,0.175209,2.61E-03,7.00E-08,1.29E-01,2.78E-03,0.134593,5.86E-02,1.44E+00,5.69E-10,4.86E-05,1.49942
365.453,2.75685,7.48592,19.25607,0.194111,0.141824,1.45043,4.21E-05,0.00E+00,2.17E-02,1.61E-01,0.182999,1.74E-03,4.00E-09,1.23E-01,5.18E-03,0.130336,3.83E-02,1.47E+00,9.98E-09,7.31E-05,1.51198
368.318,2.18312,7.07408,15.19325,0.203856,0.135373,1.29567,2.80E-05,0.00E+00,1.47E-02,1.73E-01,0.187594,1.16E-03,2.29E-10,1.15E-01,9.52E-03,0.125766,2.46E-02,1.44E+00,1.75E-07,1.10E-04,1.46153
371.183,1.62238,6.66604,11.77803,0.195206,0.137138,1.10307,1.86E-05,0.00E+00,9.83E-03,1.80E-01,0.189873,7.68E-04,1.31E-11,1.04E-01,1.71E-02,0.121693,1.56E-02,1.10E+00,3.07E-06,1.66E-04,1.11634
374.0474,1.06495,6.28256,9.3612,0.185807,0.144123,0.549263,1.23E-05,0.00E+00,6.48E-03,1.84E-01,0.19063,5.11E-04,7.47E-13,8.96E-02,2.97E-02,0.119824,9.80E-03,4.17E-01,5.38E-05,0.000249272,0.426746
376.912,0.55927,5.89126,8.88475,0.184765,0.132829,-0.003068343,8.20E-06,0.00E+00,4.23E-03,0.183708,0.187951,3.39E-04,4.27611E-14,7.34E-02,4.86E-02,0.122324,6.13E-03,8.07E-02,9.35E-04,0.000374983,0.0881159
379.777,0.12426,5.50019,8.88681,0.14305,0.144882,0.006927347,5.45E-06,0.00E+00,2.75E-03,0.145403,0.148162,2.25E-04,2.49384E-15,5.69E-02,7.31E-02,0.130187,3.83E-03,1.26E-02,1.41E-02,0.000563832,0.0310791
382.642,-0.18874,5.06069,8.79906,0.0518634,0.16512,0.0540886,3.62E-06,0.00E+00,0.001783687,3.07E-02,0.0324499,1.50E-04,0,4.17E-02,9.97E-02,0.141609,2.38E-03,1.90E-03,7.03E-02,0.000847203,0.0753888
385.506,-0.23115,4.62717,8.58996,0.001916376,0.16324,0.0847039,2.40E-06,0.00E+00,0.001152873,2.07E-03,0.003223512,9.95E-05,0,2.92E-02,1.24E-01,0.152866,1.48E-03,2.84E-04,9.09E-02,1.27E-03,0.093916
388.371,-0.22,4.13487,8.34591,0.0112208,0.168434,0.0907097,1.60E-06,0.00E+00,0.000744016,1.19E-04,0.000864881,6.61E-05,0,1.97E-02,1.41E-01,0.161185,9.22E-04,4.24E-05,9.22E-02,1.91E-03,0.0950699
391.236,-0.25125,3.6477,8.09501,0.008629,0.16557,0.0878979,1.06E-06,0.00E+00,0.000479683,6.81E-06,0.000487551,4.39E-05,0,1.29E-02,1.53E-01,0.166042,5.72E-04,6.31E-06,9.19E-02,2.85E-03,0.0953667
394.101,-0.26356,3.161,7.8259,0.004304055,0.173848,0.101904,7.04E-07,0.00E+00,0.000309065,3.88E-07,0.000310158,2.92E-05,0,8.28E-03,1.60E-01,0.168177,3.55E-04,9.39E-07,9.14E-02,4.25E-03,0.096021
396.965,-0.26449,2.66559,7.54717,-0.003586708,0.179356,0.101328,4.68E-07,0.00E+00,0.000199052,2.21E-08,0.000199542,1.94E-05,0,5.25E-03,1.63E-01,0.168223,2.21E-04,1.40E-07,9.06E-02,6.30E-03,0.0971557
399.8301,-0.27407,2.18703,7.2533,0.004068431,0.1649466,0.101381,3.11E-07,0.00E+00,0.000128165,1.26E-09,0.000128477,1.29E-05,0,3.31E-03,1.62E-01,0.165641,1.37E-04,2.07E-08,8.95E-02,9.27E-03,0.098893
402.695,-0.28231,1.71749,6.97334,0.003586705,0.155234,0.102915,2.06E-07,0.00E+00,8.25079E-05,7.19E-11,8.27144E-05,8.55E-06,0,0.002070114,1.55E-01,0.157267,8.50E-05,3.08E-09,8.78E-02,1.35E-02,0.101393
405.56,-0.28779,1.30841,6.67719,-0.005738703,0.134394,0.103826,1.37E-07,0,5.31099E-05,4.10E-12,5.32E-05,5.68E-06,0,0.001291464,1.34E-01,0.13565,5.27E-05,4.57E-10,8.54E-02,1.94E-02,0.104818
408.424,-0.275,0.95683,6.3689,0.004063215,0.111869,0.115466,9.10E-08,0,3.41841E-05,2.34E-13,3.43E-05,3.77E-06,0,0.000803986,9.40E-02,0.0947817,3.27E-05,6.78E-11,8.20E-02,2.72E-02,0.10927
411.289,-0.28731,0.69172,6.03604,0.001450393,0.0615501,0.109423,6.05E-08,0,2.20016E-05,1.33E-14,2.21E-05,2.50E-06,0,0.00049985,4.83E-02,0.0487532,2.03E-05,1.01E-11,7.74E-02,3.73E-02,0.114684
414.154,-0.2782,0.59564,5.66778,-0.002628507,0.0241592,0.132462,4.02E-08,0,1.41602E-05,7.59E-16,1.42E-05,1.66E-06,0,0.000310507,1.91E-02,0.0193789,1.26E-05,1.49E-12,7.13E-02,4.94E-02,0.120726
417.019,-0.28688,0.56321,5.32545,0.004068461,0.00386947,0.144908,2.67E-08,0,9.11336E-06,4.22E-17,9.14E-06,1.10E-06,0,0.000192788,6.57E-03,0.006763626,7.82E-06,2.21E-13,6.38E-02,6.29E-02,0.126783
419.883,-0.29144,0.56234,4.9323,0.003204477,0,0.146029,1.77E-08,0,5.86518E-06,0.00E+00,5.88E-06,7.34E-07,0,0.00011966,2.15E-03,2.27E-03,4.85E-06,3.27E-14,5.51E-02,7.70E-02,0.132108
422.748,-0.2951,0.56016,4.54829,-0.000905835,0.001602236,0.129111,1.18E-08,0,3.77469E-06,0.00E+00,3.79E-06,4.87E-07,0,7.42564E-05,6.88E-04,7.63E-04,3.01E-06,4.95E-15,4.57E-02,9.04E-02,0.13611
425.613,-0.29281,0.5549,4.10804,0.005492707,-0.000157095,0.139253,7.81E-09,0,2.42928E-06,0.00E+00,2.44E-06,3.24E-07,0,4.60748E-05,2.19E-04,2.66E-04,1.87E-06,7.62E-16,3.63E-02,1.02E-01,0.138589
428.478,-0.31566,0.55758,3.68318,0.007293805,-0.001832615,0.151998,5.19E-09,0,1.56341E-06,0.00E+00,1.57E-06,2.15E-07,0,2.85865E-05,6.98E-05,9.86E-05,1.16E-06,0,2.78E-02,1.12E-01,0.139738
431.3423,-0.32241,0.54923,3.30224,-0.006450827,0.002775102,0.152019,3.45E-09,0,1.00616E-06,0.00E+00,1.01E-06,1.43E-07,0,1.77353E-05,2.22E-05,4.01E-05,7.19E-07,0,2.05E-02,1.19E-01,0.139944
434.207,-0.31612,0.54792,2.86611,0.000958198,0.001602236,0.1530817,2.29E-09,0,6.47536E-07,0.00E+00,6.50E-07,9.48E-08,0,1.10028E-05,7.06E-06,1.82E-05,4.46E-07,0,1.47E-02,1.25E-01,0.139533
437.072,-0.32617,0.54486,2.44453,0.004780515,0,0.154616,1.52E-09,0,4.16733E-07,0.00E+00,4.18E-07,6.30E-08,0,6.82585E-06,2.25E-06,9.13E-06,2.77E-07,0,1.03E-02,1.28E-01,1.39E-01
439.937,-0.33073,0.54486,2.03975,0.001298544,0.00022515,0.139049,1.01E-09,0,2.68196E-07,0.00E+00,2.69E-07,4.18E-08,0,4.23456E-06,7.14E-07,4.99E-06,1.72E-07,0,7.11E-03,1.30E-01,1.37E-01
442.801,-0.32571,0.54355,1.62702,-0.000481718,0.000455538,0.131766,6.71E-10,0,1.72602E-07,0.00E+00,1.73E-07,2.78E-08,0,2.62697E-06,2.27E-07,2.88E-06,1.06E-07,0,4.85E-03,1.28E-01,1.32E-01
445.666,-0.32434,0.5488,1.28976,-0.001596995,-0.000403211,0.135441,4.45E-10,0,1.11081E-07,0.00E+00,1.12E-07,1.84E-08,0,1.62968E-06,7.22E-08,1.72E-06,6.60E-08,0,3.28E-03,1.20E-01,1.23E-01
448.531,-0.32196,0.53525,0.96804,0.006937825,0.003665248,0.104994,2.96E-10,0,7.14878E-08,0.00E+00,7.18E-08,1.22E-08,0,1.01099E-06,2.29E-08,1.05E-06,4.10E-08,0,0.002203268,1.01E-01,1.04E-01
451.396,-0.33839,0.53529,0.67097,0.001884984,-0.003204484,0.0970086,1.96E-10,0,4.60072E-08,0.00E+00,4.62E-08,8.14E-09,0,6.27178E-07,7.30E-09,6.43E-07,2.54E-08,0,0.001475035,7.24E-02,7.39E-02
454.26,-0.34307,0.54137,0.44532,0.000717338,-0.001251416,0.0645084,1.30E-10,0,2.96087E-08,0.00E+00,2.97E-08,5.40E-09,0,3.89076E-07,2.32E-09,3.97E-07,1.58E-08,0,0.000984888,4.15E-02,4.24E-02
457.125,-0.34444,0.54051,0.29361,0.0009582,0.000455538,0.03673627,8.67E-11,0,1.90552E-08,0.00E+00,1.91E-08,3.59E-09,0,2.41367E-07,7.37E-10,2.46E-07,9.78E-09,0,0.000656447,1.96E-02,2.03E-02
459.99,-0.33896,0.53831,0.2333,0.001675553,-0.00069115,0.009246894,5.76E-11,0,1.22633E-08,0.00E+00,1.23E-08,2.38E-09,0,1.49734E-07,2.34E-10,1.52E-07,6.07E-09,0,0.000437014,8.30E-03,8.73E-03
462.854,-0.34764,0.55011,0.21564,0.00119383,-0.002748943,0.003262078,3.82E-11,0,7.89223E-09,0.00E+00,7.93E-09,1.58E-09,0,9.28889E-08,7.45E-11,9.45E-08,3.77E-09,0,0.000290701,3.32E-03,3.61E-03
465.719,-0.34533,0.55448,0.2148,-0.005743984,-0.001377086,-0.002408599,2.54E-11,0,5.07917E-09,0.00E+00,5.10E-09,1.05E-09,0,5.76244E-08,2.37E-11,5.87E-08,2.34E-09,0,0.000193272,1.30E-03,1.49E-03
468.584,-0.33804,0.55579,0.22489,0.003345835,0,-0.002623275,1.69E-11,0,3.26878E-09,0.00E+00,3.29E-09,6.98E-10,0,3.57478E-08,7.54E-12,3.65E-08,1.45E-09,0,0.000128451,5.02E-04,6.31E-04
471.449,-0.35175,0.54967,0.22653,0.001434678,0.003434845,0,1.12E-11,0,2.10368E-09,0.00E+00,2.11E-09,4.64E-10,0,2.21765E-08,2.40E-12,2.26E-08,8.99E-10,0,8.535E-05,1.94E-04,2.79E-04
474.313,-0.35266,0.5488,0.22611,-0.002387632,0.002748921,0.00043983,7.44E-12,0,1.35386E-09,0.00E+00,1.36E-09,3.08E-10,0,1.37574E-08,7.62E-13,1.41E-08,5.58E-10,0,5.67026E-05,7.47E-05,1.31E-04
477.178,-0.34901,0.54268,0.22526,-0.003178277,-0.001371845,-5.48328E-11,4.94E-12,0,8.71297E-10,0.00E+00,8.76E-10,2.05E-10,0,8.5345E-09,2.42E-13,8.74E-09,3.46E-10,0,3.76667E-05,2.87E-05,6.64E-05
480.043,-0.34581,0.54748,0.22694,-0.001188579,-0.0029741,-0.002403359,3.28E-12,0,5.60738E-10,0.00E+00,5.64E-10,1.36E-10,0,5.29445E-09,7.70E-14,5.43E-09,2.15E-10,0,2.50197E-05,1.11E-05,3.61E-05
482.908,-0.35677,0.55753,0.23699,-0.000932048,-0.000916312,-0.006477014,2.18E-12,0,3.60872E-10,0.00E+00,3.63E-10,9.02E-11,0,3.28446E-09,2.45E-14,3.37E-09,1.33E-10,0,1.66183E-05,4.26E-06,2.09E-05
485.772,-0.35816,0.55588,0.24662,-0.00764991,0.003885158,-0.001743613,1.45E-12,0,2.32245E-10,0.00E+00,2.34E-10,5.99E-11,0,2.03754E-09,7.77E-15,2.10E-09,8.26E-11,0,1.10377E-05,1.64E-06,1.27E-05
488.6372,-0.34124,0.54792,0.2495,-0.00693253,0.002083956,-0.00109434,9.61E-13,0,1.49465E-10,0.00E+00,1.50E-10,3.98E-11,0,1.26401E-09,2.48E-15,1.30E-09,5.12E-11,0,7.33095E-06,6.31E-07,7.96E-06
491.502,-0.35997,0.54486,0.25207,0.003351116,-0.002764629,-0.000450302,6.38E-13,0,9.61908E-11,0.00E+00,9.68E-11,2.64E-11,0,7.84138E-10,7.88E-16,8.11E-10,3.18E-11,0,4.86897E-06,2.43E-07,5.11E-06
494.367,-0.3592,0.54784,0.25374,9.94474E-05,0.00891181,0.000748764,4.24E-13,0,6.19051E-11,0.00E+00,6.23E-11,1.76E-11,0,4.86446E-10,2.63E-16,5.04E-10,1.97E-11,0,3.23377E-06,9.34E-08,3.33E-06
497.231,-0.3522,0.54006,0.25039,0.00485381,-0.004345955,0,2.82E-13,0,3.98401E-11,0.00E+00,4.01E-11,1.17E-11,0,3.01771E-10,7.51E-17,3.13E-10,1.22E-11,0,2.14773E-06,3.60E-08,2.18E-06
498.186,-0.36151,0.54093,0.25039,0.009749508,-0.000911071,0,2.46E-13,0,3.43968E-11,0.00E+00,3.46E-11,1.02E-11,0,2.5737E-10,3.75E-17,2.68E-10,1.04E-11,0,1.87386E-06,2.62E-08,1.90E-06