File: src/TGA/Tb_TGA.csv
temperature,rate_3,rate_5,rate_10,rate_3_diff,rate_5_diff,rate_10_diff,rate_3_diff_reaction_0,rate_3_diff_reaction_1,rate_3_diff_reaction_2,rate_3_diff_reaction_3,rate_3_diff_reaction_4,rate_3_diff_reaction_5,rate_3_diff_cumulative,rate_5_diff_reaction_0,rate_5_diff_reaction_1,rate_5_diff_reaction_2,rate_5_diff_reaction_3,rate_5_diff_reaction_4,rate_5_diff_reaction_5,rate_5_diff_cumulative,rate_10_diff_reaction_0,rate_10_diff_reaction_1,rate_10_diff_reaction_2,rate_10_diff_reaction_3,rate_10_diff_reaction_4,rate_10_diff_reaction_5,rate_10_diff_cumulative
30.586,100,100,100,0,0,0,3.25E-06,1.86E-13,4.03E-08,3.91E-270,1.96E-25,1.26E-31,3.29E-06,1.58E-06,2.09E-14,3.23E-17,7.54E-292,4.47E-32,2.52E-28,1.58E-06,6.98E-07,5.96E-13,2.09E-28,9.38E-174,9.95E-34,1.03E-43,6.98E-07
33.45075,99.36339,100.328,99.42004,0.006230954,-0.001507996,-0.009058445,3.81E-06,2.66E-13,4.77E-08,1.20E-267,3.15E-25,2.23E-31,3.85E-06,1.86E-06,2.99E-14,4.62E-17,2.32E-289,7.93E-32,4.06E-28,1.86E-06,8.19E-07,8.06E-13,3.70E-28,2.26E-172,1.77E-33,2.11E-43,8.19E-07
36.31549,99.35292,100.334,99.45705,-0.002930681,-0.00271263,-0.00864925,4.46E-06,3.81E-13,5.64E-08,3.70E-265,5.08E-25,3.96E-31,4.52E-06,2.18E-06,4.27E-14,6.61E-17,7.14E-287,1.41E-31,6.54E-28,2.18E-06,9.60E-07,1.09E-12,6.56E-28,5.46E-171,3.13E-33,4.32E-43,9.60E-07
39.18024,99.36528,100.351,99.45687,-0.002444793,-0.001909068,-0.002241764,5.23E-06,5.45E-13,6.68E-08,1.14E-262,8.19E-25,7.03E-31,5.30E-06,2.55E-06,6.11E-14,9.46E-17,2.20E-284,2.49E-31,1.05E-27,2.55E-06,1.13E-06,1.47E-12,1.16E-27,1.32E-169,5.55E-33,8.84E-43,1.13E-06
42.04498,99.35907,100.348,99.48016,-0.000690215,0.000642976,-0.002500875,6.14E-06,7.80E-13,7.90E-08,3.51E-260,1.32E-24,1.25E-30,6.22E-06,2.99E-06,8.74E-14,1.35E-16,6.77E-282,4.42E-31,1.70E-27,2.99E-06,1.32E-06,1.99E-12,2.06E-27,3.18E-168,9.85E-33,1.81E-42,1.32E-06
44.90973,99.36254,100.356,99.47091,-0.003795905,-0.00326518,8.83727E-05,7.20E-06,1.12E-12,9.35E-08,1.08E-257,2.13E-24,2.21E-30,7.29E-06,3.51E-06,1.25E-13,1.94E-16,2.08E-279,7.84E-31,2.74E-27,3.51E-06,1.55E-06,2.69E-12,3.66E-27,7.66E-167,1.75E-32,3.70E-42,1.55E-06
47.77447,99.37793,100.362,99.48737,-0.001998887,-0.001443197,-0.001947685,8.44E-06,1.60E-12,1.11E-07,3.33E-255,3.43E-24,3.92E-30,8.55E-06,4.11E-06,1.79E-13,2.77E-16,6.41E-277,1.39E-30,4.42E-27,4.11E-06,1.81E-06,3.64E-12,6.49E-27,1.85E-165,3.10E-32,7.57E-42,1.81E-06
50.63922,99.38475,100.361,99.48125,-0.001592866,-0.00106115,0.001419593,9.89E-06,2.28E-12,1.31E-07,1.02E-252,5.53E-24,6.95E-30,1.00E-05,4.82E-06,2.56E-13,3.96E-16,1.97E-274,2.47E-30,7.12E-27,4.82E-06,2.13E-06,4.92E-12,1.15E-26,4.46E-164,5.49E-32,1.55E-41,2.13E-06
53.50396,99.37809,100.359,99.48115,0.000116462,0.000621881,-0.001131723,1.16E-05,3.27E-12,1.55E-07,3.15E-250,8.92E-24,1.23E-29,1.18E-05,5.66E-06,3.66E-13,5.67E-16,6.08E-272,4.37E-30,1.15E-26,5.66E-06,2.49E-06,6.66E-12,2.04E-26,1.07E-162,9.74E-32,3.17E-41,2.49E-06
56.36871,99.38945,100.373,99.47929,-0.004010228,9.55748E-05,-0.001455551,1.36E-05,4.67E-12,1.84E-07,9.70E-248,1.44E-23,2.19E-29,1.38E-05,6.63E-06,5.24E-13,8.11E-16,1.87E-269,7.76E-30,1.85E-26,6.63E-06,2.92E-06,9.00E-12,3.62E-26,2.59E-161,1.73E-31,6.49E-41,2.92E-06
59.23345,99.3921,100.3643,99.49316,-0.00348166,0.001349376,-0.000781671,1.59E-05,6.69E-12,2.17E-07,2.99E-245,2.32E-23,3.88E-29,1.62E-05,7.78E-06,7.50E-13,1.16E-15,5.76E-267,1.38E-29,2.98E-26,7.78E-06,3.43E-06,1.22E-11,6.42E-26,6.25E-160,3.06E-31,1.33E-40,3.43E-06
62.0982,99.39683,100.357,99.486,-0.00212504,0.001191624,0.001629111,1.87E-05,9.57E-12,2.57E-07,9.19E-243,3.74E-23,6.88E-29,1.90E-05,9.12E-06,1.07E-12,1.66E-15,1.77E-264,2.44E-29,4.81E-26,9.12E-06,4.02E-06,1.65E-11,1.14E-25,1.51E-158,5.43E-31,2.72E-40,4.02E-06
64.96294,99.40051,100.357,99.48241,0.000899947,-0.000943593,0.000811479,2.19E-05,1.37E-11,3.04E-07,2.83E-240,6.02E-23,1.22E-28,2.22E-05,1.07E-05,1.53E-12,2.37362E-15,5.46E-262,4.33E-29,7.75E-26,1.06905E-05,4.71E-06,2.22E-11,2.02E-25,3.64E-157,9.64E-31,5.57E-40,4.71E-06
67.82769,99.39667,100.361,99.48596,-0.002114192,-0.000948055,0.000815644,2.57E-05,1.96E-11,3.60E-07,8.71E-238,9.71E-23,2.16E-28,2.61E-05,1.25E-05,2.19E-12,3.3957E-15,1.68E-259,7.67E-29,1.25E-25,1.25347E-05,5.53E-06,3.01E-11,3.58E-25,8.78E-156,1.71E-30,1.14E-39,5.53E-06
70.69243,99.39369,100.365,99.47227,-0.003573043,-0.001439365,0.000930764,3.01E-05,2.80E-11,4.26E-07,2.68E-235,1.56E-22,3.84E-28,3.06E-05,1.47E-05,3.14E-12,4.85788E-15,5.17E-257,1.36E-28,2.01E-25,1.46971E-05,6.48E-06,4.06E-11,6.35E-25,2.12E-154,3.03E-30,2.33E-39,6.48E-06
73.55718,99.4005,100.3635,99.47745,-0.000794864,0.000194354,-0.00102233,3.53E-05,4.01E-11,5.05E-07,8.25E-233,2.52E-22,6.81E-28,3.58E-05,1.72E-05,4.49E-12,6.94969E-15,1.59E-254,2.41E-28,3.24E-25,1.72325E-05,7.60E-06,5.50E-11,1.13E-24,5.11E-153,5.37E-30,4.77E-39,7.60E-06
76.42192,99.38896,100.364,99.47523,-0.001060174,0.000356266,-0.002016587,4.14E-05,5.73E-11,5.97104E-07,2.54E-230,4.07E-22,1.21E-27,4.20299E-05,2.02E-05,6.43E-12,9.94221E-15,4.90E-252,4.28E-28,5.23E-25,2.02053E-05,8.91E-06,7.43E-11,2.00E-24,1.23E-151,9.53E-30,9.77E-39,8.91E-06
79.28667,99.39631,100.365,99.48589,-0.000511957,0.001146443,-0.000312853,4.86E-05,8.20E-11,7.067E-07,7.82E-228,6.55E-22,2.14E-27,4.92868E-05,2.37E-05,9.19E-12,1.42233E-14,1.51E-249,7.59E-28,8.43E-25,2.36908E-05,1.04E-05,1.00E-10,3.54E-24,2.97E-150,1.69E-29,2.00E-38,1.04E-05
82.15141,99.37317,100.358,99.47773,0.000426512,0.00148543,0.002448717,5.70E-05,1.17E-10,8.36411E-07,2.41E-225,1.06E-21,3.80E-27,5.77967E-05,2.78E-05,1.32E-11,2.03479E-14,4.64E-247,1.35E-27,1.36E-24,2.77776E-05,1.22E-05,1.36E-10,6.29E-24,7.16E-149,3.00E-29,4.09E-38,1.22E-05
85.01616,99.37377,100.355,99.47429,-0.001128858,-0.000614855,0.002632752,6.68E-05,1.68E-10,9.8993E-07,7.41E-223,1.70E-21,6.73E-27,6.77758E-05,3.26E-05,1.88E-11,2.91096E-14,1.43E-244,2.39E-27,2.19E-24,3.25693E-05,1.44E-05,1.84E-10,1.11E-23,1.73E-147,5.32E-29,8.37E-38,1.44E-05
87.8809,99.36117,100.356,99.4641,-0.002454211,-0.001177273,0.001906591,7.83E-05,2.40E-10,1.17163E-06,2.28E-220,2.75E-21,1.19E-26,7.94778E-05,3.82E-05,2.69E-11,4.16442E-14,4.40E-242,4.24E-27,3.53E-24,3.81875E-05,1.68E-05,2.48E-10,1.98E-23,4.17E-146,9.43E-29,1.71E-37,1.68E-05
90.74565,99.36117,100.367,99.46024,-0.001631169,-0.002696608,-0.00071753,9.18E-05,3.43E-10,1.38667E-06,7.02E-218,4.43E-21,2.12E-26,9.32001E-05,4.48E-05,3.85E-11,5.95762E-14,1.35E-239,7.51E-27,5.69E-24,4.47748E-05,1.97E-05,3.36E-10,3.51E-23,1.01E-144,1.67E-28,3.51E-37,1.97E-05
93.61039,99.36117,100.37,99.46123,-0.00070017,-0.002302842,0.001853577,1.08E-04,4.91E-10,1.64119E-06,2.16E-215,7.13E-21,3.76E-26,0.000109291,5.25E-05,5.51E-11,8.52295E-14,4.17E-237,1.33E-26,9.18E-24,5.24982E-05,2.32E-05,4.54E-10,6.22E-23,2.42E-143,2.97E-28,7.18E-37,2.32E-05
96.47514,99.36903,100.377,99.45983,-0.001116945,-0.000988922,0.003737537,1.26E-04,7.03E-10,1.94242E-06,6.65E-213,1.15E-20,6.66E-26,0.00012816,6.16E-05,7.88E-11,1.21929E-13,1.28E-234,2.36E-26,1.48E-23,6.15536E-05,2.71E-05,6.13E-10,1.10E-22,5.85E-142,5.26E-28,1.47E-36,2.71E-05
99.33988,99.36436,100.381,99.4409,-0.000112492,0.001762022,0.000743532,1.48E-04,1.01E-09,2.29894E-06,2.05E-210,1.85E-20,1.18E-25,0.000150287,7.22E-05,1.13E-10,1.74432E-13,3.95E-232,4.19E-26,2.38E-23,7.21707E-05,3.18E-05,8.29E-10,1.96E-22,1.41E-140,9.33E-28,3.01E-36,3.18E-05
102.205,99.36058,100.373,99.45079,0.001275627,-0.001686967,-0.00184405,1.74E-04,1.44E-09,2.7209E-06,6.30E-208,2.99E-20,2.09E-25,0.000176232,8.46E-05,1.61E-10,2.49542E-13,1.21E-229,7.43E-26,3.84E-23,8.46188E-05,3.73E-05,1.12E-09,3.47E-22,3.40E-139,1.65E-27,6.15E-36,3.73E-05
105.069,99.36903,100.379,99.44381,-0.00027023,-0.001237604,0.002311269,2.03E-04,2.06E-09,3.22031E-06,1.94E-205,4.82E-20,3.72E-25,0.000206656,9.92E-05,2.31E-10,3.56995E-13,3.74E-227,1.32E-25,6.20E-23,9.92133E-05,4.38E-05,1.52E-09,6.15E-22,8.21E-138,2.93E-27,1.26E-35,4.38E-05
107.934,99.3533,100.386,99.43701,-9.8252E-06,0.003440729,0.003797728,2.39E-04,2.94E-09,3.81138E-06,5.97E-203,7.76E-20,6.59E-25,0.00024233,1.16E-04,3.30E-10,5.10716E-13,1.15E-224,2.34E-25,9.99E-23,0.000116324,5.13E-05,2.05E-09,1.09E-21,1.98E-136,5.20E-27,2.58E-35,5.13E-05
110.799,99.3528,100.362,99.42732,0.001280519,0.005214319,0.000416325,2.80E-04,4.21E-09,4.51094E-06,1.84E-200,1.25E-19,1.17E-24,0.000284161,1.36E-04,4.72E-10,7.3063E-13,3.54E-222,4.14E-25,1.61E-22,0.000136386,6.02E-05,2.77E-09,1.94E-21,4.77E-135,9.23E-27,5.27E-35,6.02E-05
113.664,99.35015,100.356,99.42589,-0.000623356,0.000290733,-0.001796738,0.000327864,6.03E-09,5.33889E-06,5.65E-198,2.02E-19,2.07E-24,0.000333209,1.60E-04,6.76E-10,1.04524E-12,1.09E-219,7.35E-25,2.60E-22,0.000159905,7.05E-05,3.75E-09,3.43E-21,1.15E-133,1.64E-26,1.08E-34,7.05E-05
116.528,99.35907,100.359,99.43796,-0.004215815,0.001274165,-0.00020724,0.000384392,8.62E-09,6.31881E-06,1.74E-195,3.25E-19,3.68E-24,0.000390719,1.87E-04,9.66E-10,1.49532E-12,3.36E-217,1.30E-24,4.18E-22,0.000187479,8.27E-05,5.06E-09,6.09E-21,2.78E-132,2.90E-26,2.21E-34,8.27E-05
119.3931,99.35435,100.347,99.42978,-0.001183791,0.001709593,0.001814611,0.000450658,1.23E-08,7.47859E-06,5.36E-193,5.24E-19,6.52E-24,0.000458149,2.20E-04,1.38E-09,2.1392E-12,1.03E-214,2.31E-24,6.74E-22,0.000219804,9.70E-05,6.85E-09,1.08E-20,6.70E-131,5.15E-26,4.52E-34,9.70E-05
122.258,99.34543,100.347,99.4288,0.00365742,0.000491088,-0.000128006,0.000528339,1.76E-08,8.85124E-06,1.65E-190,8.45E-19,1.16E-23,0.000537208,2.58E-04,1.98E-09,3.06033E-12,3.18E-212,4.10E-24,1.09E-21,0.0002577,1.14E-04,9.26E-09,1.91E-20,1.62E-129,9.13E-26,9.25E-34,0.000113683
125.123,99.31658,100.348,99.4288,0.003768291,-9.97433E-05,0.001383641,0.000619397,2.52E-08,1.04758E-05,5.08E-188,1.36E-18,2.05E-23,0.000629898,0.000302122,2.83E-09,4.37811E-12,9.79E-210,7.27E-24,1.75E-21,0.000302125,1.33E-04,1.25E-08,3.39E-20,3.90E-128,1.62E-25,1.89E-33,0.000133289
127.987,99.31134,100.347,99.42636,-0.000167993,-0.000347336,0.001185911,0.00072613,3.61E-08,1.23986E-05,1.56E-185,2.20E-18,3.64E-23,0.000738565,0.000354197,4.05E-09,6.26332E-12,3.01E-207,1.29E-23,2.82E-21,0.000354201,1.56E-04,1.69E-08,6.02E-20,9.40E-127,2.87E-25,3.88E-33,0.000156275
130.852,99.31082,100.349,99.41921,0.004492257,0.001264492,-0.00100328,0.00085123,5.17E-08,1.46743E-05,4.81E-183,3.54E-18,6.45E-23,0.000865956,0.000415238,5.79E-09,8.9603E-12,9.28E-205,2.29E-23,4.55E-21,0.000415244,1.83E-04,2.29E-08,1.06781E-19,2.27E-125,5.09E-25,7.93E-33,0.000183223
133.717,99.30453,100.3427,99.42739,0.001828092,0.002445283,0.001052628,0.000997849,7.39E-08,1.73676E-05,1.48E-180,5.71E-18,1.14E-22,0.00101529,0.000486786,8.28E-09,1.28186E-11,2.86E-202,4.06E-23,7.34E-21,0.000486795,0.000214784,3.09E-08,1.89374E-19,5.47E-124,9.03E-25,1.62E-32,0.000214815
136.582,99.28881,100.335,99.41772,0.00064021,0.002753806,0.002066967,0.001169675,1.06E-07,2.05553E-05,4.56E-178,9.20E-18,2.03E-22,0.001190336,0.000570646,1.19E-08,1.83383E-11,8.79E-200,7.19E-23,1.18E-20,0.000570657,0.000251809,4.18E-08,3.35853E-19,1.32E-122,1.60E-24,3.32E-32,0.000251851
139.446,99.28616,100.329,99.41319,0.000832592,0.001515532,0.000842605,0.001371024,1.51E-07,2.4328E-05,1.40E-175,1.48E-17,3.60E-22,0.001395503,0.000668927,1.70E-08,2.62347E-11,2.71E-197,1.28E-22,1.91E-20,0.000668944,0.000295211,5.65E-08,5.95632E-19,3.18E-121,2.84E-24,6.80E-32,0.000295267
142.311,99.27669,100.324,99.41524,0.002233433,0.000687059,-0.00046341,0.001606946,2.16E-07,2.87931E-05,4.32E-173,2.39E-17,6.38E-22,0.001635955,0.000784102,2.43E-08,3.75313E-11,8.33E-195,2.26E-22,3.07E-20,0.000784126,0.000346085,7.64E-08,1.05635E-18,7.68E-120,5.04E-24,1.39E-31,0.000346162
145.1758,99.26676,100.324,99.41542,0.001287274,-0.000766952,0.000582339,0.001883341,3.10E-07,3.40778E-05,1.33E-170,3.85E-17,1.13E-21,0.001917728,0.000919061,3.47E-08,5.36923E-11,2.56E-192,4.01E-22,4.96E-20,0.000919096,0.000405716,1.03E-07,1.87342E-18,1.85E-118,8.93E-24,2.85E-31,0.000405819
148.041,99.25837,100.324,99.41525,0.002465049,0.004372001,0.000291025,0.00220711,4.43E-07,4.03324E-05,4.09E-168,6.21E-17,2.01E-21,0.002247885,0.001077188,4.96E-08,7.68121E-11,7.89E-190,7.12E-22,7.99E-20,0.001077238,0.000475607,1.40E-07,3.32249E-18,4.47E-117,1.58E-23,5.83E-31,0.000475746
150.905,99.25365,100.306,99.41427,0.004864999,0.005482047,0.00099002,0.002586308,6.34E-07,4.77348E-05,1.26E-165,1.00E-16,3.56E-21,0.002634676,0.001262434,7.10E-08,1.09887E-10,2.43E-187,1.26E-21,1.29E-19,0.001262505,0.000557516,1.89E-07,5.8924E-18,1.08E-115,2.81E-23,1.19E-30,0.000557705
153.77,99.24316,100.292,99.41137,0.00351248,0.003666494,0.003490436,0.003030342,9.06E-07,5.64958E-05,3.88E-163,1.61E-16,6.31E-21,0.003087744,0.00147942,1.02E-07,1.57205E-10,7.48E-185,2.24E-21,2.08E-19,0.001479522,0.000653503,2.55E-07,1.04501E-17,2.60E-114,4.98E-23,2.44E-30,0.000653759
156.635,99.24316,100.29,99.39974,0.005171847,0.004201755,0.00410844,0.003550175,1.30E-06,6.68645E-05,1.19E-160,2.60E-16,1.12E-20,0.003618336,0.001733538,1.45E-07,2.24897E-10,2.30E-182,3.97E-21,3.35E-19,0.001733684,0.000765978,3.45E-07,1.85332E-17,6.27E-113,8.84E-23,5.00E-30,0.000766323
159.5,99.23109,100.263,99.38716,0.006776784,0.005878388,0.001667996,0.004158591,1.85E-06,7.91362E-05,3.67E-158,4.19E-16,1.98E-20,0.004239582,0.002031084,2.08E-07,3.21737E-10,7.08E-180,7.04E-21,5.39E-19,0.002031292,0.000897757,4.67E-07,3.28684E-17,1.51E-111,1.57E-22,1.02E-29,0.000898223
162.364,99.20854,100.258,99.38523,0.0100985,0.003334603,0.001113053,0.004870458,2.65E-06,9.36598E-05,1.13E-155,6.76E-16,3.52E-20,0.004966772,0.002379395,2.97E-07,4.60277E-10,2.18E-177,1.25E-20,8.69E-19,0.002379693,0.001052133,6.31E-07,5.82917E-17,3.65E-110,2.78E-22,2.09E-29,0.001052764
165.229,99.17078,100.245,99.38388,0.008556016,0.002031664,0.002893165,0.00570307,3.80E-06,0.000110849,3.48E-153,1.09E-15,6.24E-20,0.005817715,0.00278702,4.26E-07,6.58472E-10,6.71E-175,2.21E-20,1.40E-18,0.002787447,0.001232956,8.53E-07,1.0338E-16,8.79E-109,4.93E-22,4.28E-29,0.001233808
168.094,99.13826,100.244,99.37071,0.006737705,0.003991426,0.004106907,0.006676483,5.43E-06,0.000131191,1.07E-150,1.76E-15,1.11E-19,0.006813106,0.003263903,6.09E-07,9.42008E-10,2.07E-172,3.93E-20,2.26E-18,0.003264513,0.001444715,1.15E-06,1.83343E-16,2.12E-107,8.74E-22,8.77E-29,0.001445868
170.959,99.11938,100.228,99.35962,0.007787545,0.008360062,0.004376839,0.007813949,7.77E-06,0.000155267,3.30E-148,2.83E-15,1.96E-19,0.007976986,0.003821601,8.71E-07,1.34764E-09,6.36E-170,6.96E-20,3.64E-18,0.003822473,0.001692655,1.56E-06,3.25157E-16,5.12E-106,1.55E-21,1.79E-28,0.001694214
173.823,99.0963,100.203,99.34309,0.013078,0.0100355,0.00820986,0.009142328,1.11E-05,0.00018376,1.01E-145,4.56E-15,3.48E-19,0.009337204,0.004473514,1.25E-06,1.92793E-09,1.96E-167,1.24E-19,5.87E-18,0.004474762,0.001982884,2.11E-06,5.76661E-16,1.23E-104,2.75E-21,3.67E-28,0.001984991
176.688,99.03974,100.171,99.3184,0.01640365,0.007503026,0.006487598,0.0106926,1.59E-05,0.000217481,3.12E-143,7.36E-15,6.18E-19,0.010926,0.005235167,1.78E-06,2.75809E-09,6.03E-165,2.19E-19,9.46E-18,0.005236952,0.002322521,2.85E-06,1.0227E-15,2.98E-103,4.88E-21,7.52E-28,0.002325369
179.553,98.97304,100.156,99.30342,0.0175136,0.008649694,0.00310862,0.0125004,2.27E-05,0.000257387,9.62E-141,1.19E-14,1.10E-18,0.0127805,0.006124484,2.55E-06,3.94572E-09,1.85E-162,3.88E-19,1.53E-17,0.006127038,0.00271984,3.85E-06,1.81375E-15,7.18E-102,8.65E-21,1.54E-27,0.002723692
182.417,98.90286,100.127,99.30099,0.0164412,0.0132663,0.00313146,0.0146065,3.25E-05,0.000304614,2.96E-138,1.91E-14,1.94E-18,0.0149437,0.007162131,3.65E-06,5.64474E-09,5.71E-160,6.89E-19,2.46E-17,0.007165785,0.003184461,5.21E-06,3.21667E-15,1.73E-100,1.53E-20,3.15E-27,0.003189668
185.282,98.83785,100.085,99.29083,0.0203368,0.0126324,0.006522307,0.0170574,4.65566E-05,0.000360503,9.11E-136,3.08E-14,3.44E-18,0.0174645,0.008371837,5.22E-06,8.07536E-09,1.76E-157,1.22E-18,3.96E-17,0.008377064,0.003727531,7.04E-06,5.70473E-15,4.18E-99,2.72E-20,6.44E-27,0.003734571
188.147,98.79678,100.05,99.26397,0.0235147,0.0117744,0.006289201,0.0199059,6.66024E-05,0.000426642,2.80E-133,4.97E-14,6.11E-18,0.0203991,0.009780773,7.47E-06,1.15526E-08,5.41E-155,2.17E-18,6.39E-17,0.009788251,0.004361962,9.52E-06,1.01173E-14,1.01E-97,4.83E-20,1.32E-26,0.004371479
191.012,98.70664,100.026,99.25206,0.024979,0.0156848,0.007021536,0.0232114,9.52783E-05,0.000504908,8.63E-131,8.01E-14,1.08E-17,0.0238116,0.0114199,1.07E-05,1.65271E-08,1.66E-152,3.84E-18,1.03E-16,0.0114306,0.005102654,1.29E-05,1.79429E-14,2.43E-96,8.56E-20,2.70E-26,0.005115521
193.876,98.6243,99.96159,99.23004,0.0297739,0.0197144,0.008678394,0.0270405,0.000136299,0.000597522,2.66E-128,1.29E-13,1.92E-17,0.0277743,0.0133243,1.53E-05,2.36437E-08,5.13E-150,6.82E-18,1.66E-16,0.0133396,0.005966784,1.74E-05,3.18216E-14,5.86E-95,1.52E-19,5.52E-26,0.005984179
196.741,98.50817,99.91128,99.20176,0.0377267,0.01877429,0.008160074,0.0314667,0.000194977,0.000707112,8.18E-126,2.08E-13,3.41E-17,0.0323688,0.0155335,2.19E-05,3.38247E-08,1.58E-147,1.21E-17,2.68E-16,0.0155554,0.006974057,2.35E-05,5.64351E-14,1.41E-93,2.69E-19,1.13E-25,0.006997574
199.606,98.35255,99.85456,99.18217,0.0441089,0.0225251,0.008549793,0.0365706,0.000278909,0.000836784,2.52E-123,3.35E-13,6.04E-17,0.0376863,0.0180919,3.13E-05,4.83895E-08,4.86E-145,2.14E-17,4.31E-16,0.0181232,0.00814703,3.18E-05,1.00087E-13,3.41E-92,4.77E-19,2.31E-25,0.008178824
202.4707,98.21566,99.78649,99.15346,0.0478707,0.0247912,0.0121453,0.04243879,0.000398955,0.000990209,7.75E-121,5.41E-13,1.07E-16,0.043828,0.0210484,4.47E-05,6.9226E-08,1.49E-142,3.80E-17,6.95E-16,0.0210932,0.009511376,4.30E-05,1.77503E-13,8.23E-91,8.47E-19,4.73E-25,0.009554359
205.335,98.03208,99.71461,99.11094,0.0548194,0.0282542,0.0143862,0.0491624,0.000570639,0.001171732,2.39E-118,8.71E-13,1.90E-16,0.0509048,0.0244568,6.40E-05,9.90346E-08,4.60E-140,6.74E-17,1.12E-15,0.0245209,0.0110962,5.81E-05,3.14801E-13,1.98E-89,1.50E-18,9.69E-25,0.0111543
208.2,97.84363,99.62324,99.07351,0.0667395,0.0339842,0.0175259,0.0568347,0.00081614,0.00138648,7.34E-116,1.40E-12,3.37E-16,0.0590373,0.0283755,9.15579E-05,1.41679E-07,1.42E-137,1.20E-16,1.81E-15,0.0284672,0.0129342,7.86E-05,5.58295E-13,4.79E-88,2.66E-18,1.98E-24,0.0130128
211.065,97.61483,99.52799,99.01423,0.073998,0.0395895,0.019552,0.0655466,0.001167128,0.001640518,2.26E-113,2.26E-12,5.98E-16,0.0683542,0.0328666,0.000130976,2.02686E-07,4.36E-135,2.12E-16,2.91E-15,0.0329978,0.0150621,1.06E-04,9.90132E-13,1.15E-86,4.72E-18,4.06E-24,0.0151683
213.93,97.36597,99.40885,98.95239,0.0801391,0.0445899,0.0193493,0.0753806,0.00166879,0.001941005,6.96E-111,3.65E-12,1.06E-15,0.0789904,0.0379947,0.000187362,2.89962E-07,1.34E-132,3.76E-16,4.70E-15,0.0381824,0.0175204,1.44E-04,1.75599E-12,2.78E-85,8.37E-18,8.31E-24,0.0176639
216.794,97.0934,99.27614,98.905,0.0909914,0.0482693,0.0234274,0.086402,0.002385527,0.002296397,2.14E-108,5.88E-12,1.88E-15,0.091084,0.0438258,0.000268013,4.14819E-07,4.13E-130,6.67E-16,7.57E-15,0.0440942,0.0203534,0.000194099,3.11423E-12,6.72E-84,1.49E-17,1.70E-23,0.0205475
219.659,96.77773,99.13185,98.82912,0.106596,0.05495406,0.0282504,0.0986456,0.003408964,0.002716671,6.59E-106,9.48E-12,3.34E-15,0.104771,0.0504243,0.000383365,5.93439E-07,1.27E-127,1.18E-15,1.22E-14,0.0508083,0.0236092,0.000262389,5.52304E-12,1.62E-82,2.63E-17,3.48E-23,0.0238716
222.524,96.40629,98.97334,98.74361,0.120051,0.0630739,0.0319776,0.112098,0.004869178,0.0032136,2.03E-103,1.53E-11,5.91E-15,0.120181,0.0578502,0.000548332,8.48973E-07,3.91E-125,2.10E-15,1.97E-14,0.0583994,0.027339,0.000354693,9.79506E-12,3.91E-81,4.67E-17,7.12E-23,0.0276937
225.389,95.98396,98.77755,98.65564,0.131086,0.0696693,0.0372675,0.126673,0.006950167,0.003801055,6.25E-101,2.46E-11,1.05E-14,0.137424,0.0661548,0.000784217,1.21454E-06,1.20E-122,3.72E-15,3.17E-14,0.0669403,0.0315958,0.000479447,1.73714E-11,9.42E-80,8.28E-17,1.46E-22,0.0320753
228.253,95.53494,98.56954,98.53056,0.151672,0.0796964,0.04484605,0.142179,0.009911014,0.004495385,1.92E-98,3.97E-11,1.86E-14,0.156585,0.075376,0.001121438,1.73752E-06,3.71E-120,6.60E-15,5.11E-14,0.0764992,0.0364338,0.000648042,3.08081E-11,2.27E-78,1.47E-16,2.98E-22,0.0370818
231.118,95.01625,98.33424,98.40768,0.172554,0.09112683,0.0483325,0.15828,0.0141139,0.005315824,5.92E-96,6.40E-11,3.30E-14,0.17771,0.0855318,0.001603383,2.48568E-06,1.14E-117,1.17E-14,8.24E-14,0.0871376,0.0419058,0.000875849,5.46377E-11,5.48E-77,2.61E-16,6.10E-22,0.0427817
233.9829,94.41126,98.06631,98.25322,0.197757,0.103384,0.0550283,0.174445,0.0200603,0.006284997,1.82E-93,1.03E-10,5.85E-14,0.2007907,0.0966133,0.00229187,3.55601E-06,3.51E-115,2.08E-14,1.33E-13,0.0989088,0.0480613,0.00118361,9.68995E-11,1.32E-75,4.62E-16,1.25E-21,0.0492449
236.848,93.74331,97.76011,98.09497,0.223073,0.1120047,0.0626224,0.189905,0.0284341,0.007429459,5.61E-91,1.66E-10,1.04E-13,0.225768,0.108577,0.003274803,5.08721E-06,1.08E-112,3.68E-14,2.14E-13,0.111857,0.0549429,0.001599275,1.7185E-10,3.19E-74,8.20E-16,2.56E-21,0.0565422
239.712,93.00743,97.42412,97.90647,0.244646,0.126617,0.0736098,0.203613,0.0401492,0.008780366,1.73E-88,2.68E-10,1.84E-13,0.252543,0.121336,0.004676889,7.27773E-06,3.33E-110,6.53E-14,3.45E-13,0.12602,0.062583,0.002160484,3.04775E-10,7.69E-73,1.45E-15,5.23E-21,0.0647434
242.577,92.17404,97.05893,97.69045,0.274324,0.1407138,0.0816132,0.214267,0.0563891,0.0103742,5.31E-86,4.32E-10,3.26E-13,0.28103,0.134748,0.006674357,1.04115E-05,1.02E-107,1.16E-13,5.56E-13,0.141433,0.0709991,0.002917837,5.40514E-10,1.86E-71,2.58E-15,1.07E-20,0.0739169
245.442,91.25676,96.62879,97.43338,0.305567,0.158715,0.0851849,0.220403,0.0786177,0.0122535,1.64E-83,6.97E-10,5.79E-13,0.311275,0.148608,0.009514984,1.48945E-05,3.15E-105,2.05E-13,8.97E-13,0.158138,0.0801897,0.003939247,9.58597E-10,4.48E-70,4.57E-15,2.19E-20,0.084129
248.307,90.21573,96.15907,97.20192,0.33809,0.171724,0.0915328,0.220634,0.10852,0.0144679,5.03E-81,1.12E-09,1.03E-12,0.343622,0.162633,0.0135444,2.13078E-05,9.71E-103,3.64E-13,1.45E-12,0.176199,0.090129,0.005315588,1.70006E-09,1.08E-68,8.11E-15,4.49E-20,0.0954446
251.171,89.07864,95.64428,96.92514,0.381782,0.1955237,0.0991559,0.214003,0.147821,0.0170752,1.55E-78,1.81E-09,1.82E-12,0.3789,0.176446,0.0192398,3.04825E-05,2.99E-100,6.46E-13,2.33E-12,0.195717,0.100763,0.007168072,3.01504E-09,2.60E-67,1.44E-14,9.18E-20,0.107931
254.036,87.78341,95.06622,96.61003,0.428707,0.224352,0.122345,0.200385,0.197926,0.0201421,4.77E-76,2.92E-09,3.23E-12,0.418453,0.189563,0.0272492,4.36072E-05,9.20E-98,1.15E-12,3.76E-12,0.216856,0.112002,0.009657533,5.34714E-09,6.28E-66,2.55E-14,1.88E-19,0.12166
256.901,86.36022,94.38795,96.25017,0.474672,0.248713,0.14474,0.180721,0.259383,0.0237457,1.47E-73,4.71E-09,5.73E-12,0.46385,0.201374,0.0384327,6.23824E-05,2.83E-95,2.03E-12,6.05E-12,0.239869,0.123724,0.012996,9.4831E-09,1.51E-64,4.52E-14,3.85E-19,0.13672
259.7656,84.80292,93.66826,95.82185,0.523054,0.273048,0.158585,0.156923,0.331286,0.0279744,4.52E-71,7.59E-09,1.02E-11,0.516183,0.211131,0.053894,8.924E-05,8.72E-93,3.60E-12,9.76E-12,0.265114,0.135761,0.0174607,1.68182E-08,3.65E-63,8.02E-14,7.87E-19,0.153221
262.63,83.07872,92.84464,95.34171,0.571891,0.306241,0.165639,0.131403,0.410909,0.0329292,1.39E-68,1.22E-08,1.80E-11,0.575241,0.217957,0.0749788,0.000127658,2.68E-90,6.39E-12,1.57E-11,0.293064,0.147904,0.023409,2.98269E-08,8.81E-62,1.42E-13,1.61E-18,0.171313
265.495,81.18318,91.95437,94.84376,0.62387,0.333528,0.187667,0.106467,0.493883,0.0387242,4.28E-66,1.97E-08,3.19E-11,0.639073,0.220891,0.103201,0.00018261,8.26E-88,1.13E-11,2.54E-11,0.324275,0.159895,0.03129468,5.28976E-08,2.13E-60,2.52E-13,3.30E-18,0.19119
268.36,79.0743,90.91525,94.28241,0.68567,0.364213,0.214797,0.0838312,0.57505,0.0454879,1.32E-63,3.18E-08,5.66E-11,0.704369,0.218998,0.140049,0.000261207,2.54E-85,2.01E-11,4.09E-11,0.359309,0.171421,0.0416801,9.38134E-08,5.13E-59,4.47E-13,6.75E-18,0.213101
271.225,76.79788,89.894,93.63623,0.747623,0.401152,0.236485,0.0644506,0.649684,0.05336296,4.06E-61,5.12E-08,1.00E-10,0.767498,0.211564,0.186628,0.00037361,7.82E-83,3.56E-11,6.59E-11,0.398566,0.182104,0.0552395,1.66377E-07,1.24E-57,7.93E-13,1.38E-17,0.237344
274.089,74.35129,88.7017,92.93861,0.8147,0.450067,0.261274,0.0485991,0.714506,0.0625062,1.25E-58,8.26E-08,1.78E-10,0.825611,0.198362,0.243158,0.000534338,2.41E-80,6.32E-11,1.06E-10,0.442054,0.191495,0.07274389,2.95068E-07,2.98E-56,1.41E-12,2.83E-17,0.264239
276.954,71.69207,87.37106,92.16404,0.872183,0.489836,0.291913,0.036085,0.768067,0.0730869,3.84E-56,1.33E-07,3.16E-10,0.877239,0.179888,0.308467,0.000764119,7.41E-78,1.12E-10,1.71E-10,0.489119,0.199057,0.0950137,5.23299E-07,7.20E-55,2.50E-12,5.78E-17,0.294071
279.819,68.84769,85.93075,91.29544,0.933083,0.533686,0.323995,0.02646983,8.11E-01,0.08528455,1.18E-53,2.15E-07,5.60E-10,0.922265,0.157445,0.37976,0.001092529,2.28E-75,1.99E-10,2.76E-10,0.538298,0.204165,0.122827,9.28065E-07,1.74E-53,4.43E-12,1.18E-16,0.326993
282.684,65.84963,84.35268,90.33981,0.977594,0.580083,0.356723,0.019233,8.43E-01,0.0992847,3.64E-51,3.46E-07,9.94E-10,0.961442,0.132946,0.4529164,0.001561703,7.02E-73,3.53E-10,4.45E-10,0.587424,0.206122,0.15677,1.64591E-06,4.19E-52,7.85E-12,2.42E-16,0.362895
285.548,62.77734,82.65281,89.28789,1.01017,0.619256,0.392159,0.01387115,8.66E-01,0.115273,1.12E-48,5.57E-07,1.76E-09,0.995547,0.108474,0.523352,0.002231585,2.16E-70,6.25E-10,7.17E-10,0.634058,0.204216,0.197048,2.919E-06,1.01E-50,1.39E-11,4.96E-16,0.401267
288.413,59.67033,80.84829,88.131,1.03251,0.657657,0.42817,0.009945822,8.80E-01,0.133428,3.45E-46,8.99E-07,3.13E-09,1.02316,0.0858012,0.587081,0.00318722,6.65E-68,1.11E-09,1.16E-09,0.676069,0.197837,0.243276,5.17678E-06,2.44E-49,2.47E-11,1.01E-15,0.441118
291.2778,56.66528,78.92872,86.86573,1.01177,0.697765,0.466633,0.00709846,8.71E-01,0.153908,1.06E-43,1.45E-06,5.54E-09,1.03194,0.0660774,0.641462,0.004548872,2.05E-65,1.97E-09,1.86E-09,0.712089,0.186667,0.294349,9.18091E-06,5.87E-48,4.38E-11,2.08E-15,0.481024
294.143,53.88403,76.88984,85.49568,0.954853,0.734732,0.505235,0.005047695,7.86E-01,0.176843,3.27E-41,2.33E-06,9.83E-09,0.967859,0.0497777,0.685332,0.006485704,6.31E-63,3.49E-09,3.00E-09,0.741596,0.170888,0.34844,1.6282E-05,1.42E-46,7.77E-11,4.25E-15,0.519345
297.007,51.6164,74.75177,84.0097,0.736904,0.764952,0.538142,0.003578841,5.19E-01,0.202315,1.01E-38,3.76E-06,1.74E-08,0.725218,0.0368448,7.19E-01,0.009233984,1.94E-60,6.19E-09,4.84E-09,0.764633,0.15133,0.403216,2.88753E-05,3.42E-45,1.38E-10,8.70E-15,0.554575
299.872,50.46817,72.56056,82.43085,0.448094,0.782933,0.570412,0.002531384,1.94E-01,0.23035,3.10E-36,6.07E-06,3.09E-08,0.426958,0.0269016,7.41E-01,0.0131202,5.97E-58,1.10E-08,7.81E-09,0.781238,0.129426,0.45619,5.12078E-05,8.24E-44,2.44E-10,1.78E-14,0.585667
302.737,49.52876,70.27856,80.77475,0.294003,0.790634,0.605677,0.001787025,4.77E-02,0.260895,9.53E-34,9.78E-06,5.48E-08,0.310367,0.0194378,7.53E-01,0.0185887,1.84E-55,1.95E-08,1.26E-08,0.790637,0.106937,0.505127,9.08096E-05,1.99E-42,4.33E-10,3.64E-14,0.612155
305.602,48.44666,68.01382,79.0082,0.350036,0.781178,0.634272,0.001259542,1.01E-02,0.293813,2.93E-31,1.58E-05,9.73E-08,0.305238,0.0139345,7.50E-01,0.0262309,5.66E-53,3.45E-08,2.03E-08,0.790169,0.08554725,0.54833,0.000161028,4.80E-41,7.68E-10,7.46E-14,0.634038
308.466,47.29325,65.799,77.15884,0.387871,0.75823,0.655325,0.000886591,2.09E-03,0.328873,9.03E-29,2.54E-05,1.73E-07,0.331874,0.009930339,7.27E-01,0.0368091,1.74E-50,6.12E-08,3.27E-08,0.774018,0.0665031,0.584712,0.000285513,1.16E-39,1.36E-09,1.53E-13,0.651501
311.331,46.0794,63.65541,75.27207,0.409827,0.724445,0.669739,0.000623391,4.27E-04,0.365749,2.78E-26,4.09E-05,3.06E-07,0.366841,0.007045528,6.75E-01,0.0512582,5.36E-48,1.09E-07,5.27E-08,0.732874,0.0504628,0.613649,0.000506139,2.79E-38,2.42E-09,3.12E-13,0.664618
314.196,44.83999,61.6342,73.333,0.427663,0.670944,0.679863,0.000437928,8.70E-05,0.404026,8.55E-24,6.60E-05,5.43E-07,0.404617,0.004982161,5.82E-01,0.0706418,1.65E-45,1.92E-07,8.50E-08,0.657929,0.0375475,0.634652,0.000896959,6.73E-37,4.29E-09,6.39E-13,0.673096
317.0605,43.4905,59.76389,71.39942,0.447418,0.580044,0.678797,0.000307408,1.77179E-05,0.443209,2.63E-21,1.06E-04,9.62E-07,0.443641,0.003514259,4.53E-01,0.096024,5.08E-43,3.41E-07,1.37E-07,0.552474,0.0275109,0.646916,0.001588625,1.62E-35,7.60E-09,1.31E-12,0.676016
319.925,42.04871,58.21972,69.46463,0.474417,0.421499,0.672222,0.000215649,3.60919E-06,0.482691,8.09E-19,1.71E-04,1.71E-06,0.483083,0.002474135,3.11E-01,0.12823,1.56E-40,6.05E-07,2.21E-07,0.441503,0.0199206,0.648809,0.002810771,3.92E-34,1.35E-08,2.68E-12,0.67154
322.79,40.56051,57.16588,67.54102,0.519084,0.313803,0.657379,0.000151198,7.35106E-07,0.521233,2.48E-16,2.76E-04,3.03E-06,0.521663,0.001739332,1.89E-01,0.1675,4.81E-38,1.07E-06,3.56E-07,0.358397,0.0142969,0.637385,0.004964113,9.44E-33,2.39E-08,5.48E-12,0.656646
325.655,39.11145,56.30137,65.70089,0.558736,0.311551,0.628325,1.06E-04,1.49709E-07,0.551797,7.61E-14,0.000443632,5.36721E-06,0.552352,0.001221392,1.05E-01,0.213123,1.48E-35,1.90E-06,5.74E-07,0.319377,0.0101931,0.608295,0.008739279,2.28E-31,4.24E-08,1.12E-11,0.627227
328.519,38.31795,55.34501,63.89497,0.525346,0.357347,0.59296,7.42E-05,3.04875E-08,0.520967,2.33E-11,0.000712923,9.51839E-06,0.521763,0.000856938,5.50E-02,0.263242,4.56E-33,3.38E-06,9.25E-07,0.319096,0.007231756,5.57E-01,0.0153001,5.49E-30,7.52E-08,2.30E-11,0.579368
331.384,38.24295,54.2972,62.24831,0.288318,0.384799,0.546829,5.20E-05,6.20831E-09,0.270493,7.05E-09,0.001143533,1.68799E-05,0.271706,0.000600823,2.78E-02,0.315027,1.40E-30,5.99E-06,1.49E-06,0.343484,0.005112197,4.81E-01,0.0265308,1.33E-28,1.33E-07,4.70E-11,0.5127084
334.249,38.20571,53.17975,60.74347,0.0585387,0.407142,0.488822,3.64E-05,1.2642E-09,0.0506885,2.11E-06,0.001828734,2.99335E-05,0.0525857,0.000421026,1.39E-02,0.365251,4.32E-28,1.06E-05,2.40E-06,0.379541,0.003604208,3.86E-01,0.0452657,3.20E-27,2.36E-07,9.61E-11,0.43503
337.114,38.1433,51.97673,59.41337,-0.006615335,0.431474,0.391719,2.55E-05,2.57421E-10,0.006283516,0.000605512,0.002910574,5.3078E-05,0.009878156,0.000294905,6.83E-03,0.411059,1.33E-25,1.88E-05,3.87E-06,0.418209,0.002536003,2.86E-01,0.075214,7.71E-26,4.19E-07,1.97E-10,0.363336
339.978,38.08822,50.72639,58.37732,0.0212876,0.458361,0.312631,1.78E-05,5.24168E-11,0.000728231,0.0216642,0.004597629,9.41056E-05,0.027102,2.06E-04,3.35E-03,0.450543,4.09E-23,3.34E-05,6.24E-06,0.454143,0.001781755,1.95E-01,0.119969,1.86E-24,7.44E-07,4.03E-10,0.316982
342.843,38.00582,49.38886,57.53175,0.0319198,0.490622,0.306292,1.25E-05,1.06731E-11,8.33833E-05,0.0214083,0.007177955,0.000166809,0.02884892,1.45E-04,1.64E-03,0.482878,1.26E-20,5.91914E-05,1.01E-05,0.484734,0.001250442,1.25E-01,0.180545,4.49E-23,1.32E-06,8.24E-10,0.306844
345.708,37.9217,47.95309,56.60992,0.0384488,0.515227,0.344078,8.73E-06,2.17314E-12,9.50E-06,0.0171178,0.0110083,0.000295561,0.0284399,1.01E-04,8.03E-04,0.507791,3.86E-18,0.000104915,1.62205E-05,0.508817,0.000876829,7.64E-02,0.252409,1.08E-21,2.34E-06,1.69E-09,0.329658
348.5727,37.79891,46.47013,55.58619,0.035014,0.525735,0.380514,6.10E-06,4.42521E-13,1.08E-06,0.0124304,0.0164443,0.00052332,0.0294051,7.08E-05,3.93E-04,0.523135,1.18345E-15,0.000185878,2.61452E-05,0.52381,0.000614451,4.52E-02,0.325452,2.61E-20,4.15E-06,3.45E-09,0.371258
351.437,37.67538,44.96852,54.47081,0.038059,0.515853,0.412267,4.27E-06,9.00329E-14,1.22E-07,0.008208592,0.0236701,0.000925425,0.0328085,4.95E-05,1.92E-04,0.513139,3.61718E-13,0.000329075,4.21408E-05,0.513752,0.000430374,2.62E-02,0.388911,6.29E-19,7.36E-06,7.06E-09,0.4155615
354.302,37.5391,43.54139,53.25803,0.0487123,0.423469,0.443658,2.99E-06,1.83784E-14,1.37E-08,0.005011659,0.0324324,0.001632885,0.03908,3.46E-05,9.38E-05,0.411174,1.09973E-10,0.000581833,6.79181E-05,0.411952,0.000301327,1.50E-02,0.436946,1.52E-17,1.30E-05,1.45E-08,0.452287
357.167,37.39104,42.43577,51.96582,0.0563225,0.206531,0.468217,2.09E-06,3.71699E-15,1.54E-09,0.002894437,0.04180413,0.002870009,0.0475707,2.42E-05,4.58E-05,1.83E-01,3.31277E-08,0.001026404,0.000109452,0.183786,0.000210911,8.55E-03,0.46963,3.66E-16,2.31E-05,2.96E-08,0.478418
360.032,37.23529,42.14322,50.60493,0.0550187,0.0359176,0.4925037,1.46E-06,8.26001E-16,1.73E-10,0.001613884,0.0502079,0.005010487,0.0568337,1.69E-05,2.24E-05,4.22E-02,9.82166E-06,0.001803574,0.000176354,0.0442397,1.48E-04,4.85E-03,0.4902019,8.83E-15,4.10E-05,6.06E-08,0.495241
362.896,37.0354,42.08271,49.1653,0.0599397,0.005815657,0.506756,1.02E-06,2.06501E-16,1.93E-11,0.00088145,0.0557997,0.008646675,0.0653288,1.18E-05,1.09452E-05,7.56E-03,0.00255896,0.003147781,0.000284073,0.013576,1.03E-04,2.74E-03,0.50215,2.13E-13,7.27E-05,1.24E-07,0.505069
365.761,36.84799,42.01027,47.72182,0.06962837,0.0294852,0.509807,7.14E-07,0,2.16E-12,0.000475846,0.0570429,0.0146356,0.0721551,8.29E-06,5.34807E-06,1.28E-03,0.0226389,0.005430617,0.000457388,0.0298228,7.22E-05,1.55E-03,0.507166,5.13E-12,1.29E-04,2.54E-07,0.508917
368.626,36.61677,41.92463,46.27021,0.0807364,0.0358885,0.50048,4.99E-07,0,2.40E-13,0.000255247,0.0532706,0.0240143,0.0775406,5.79E-06,2.61316E-06,2.15E-04,0.0198755,0.009189155,0.000735922,0.0300241,5.05E-05,8.75E-04,0.501858,1.24E-10,0.000228431,5.19E-07,0.503012
371.491,36.33775,41.80644,44.87799,0.0884456,0.0409972,0.45716,3.49E-07,0,2.67E-14,0.000136443,0.04514231,0.0376002,0.0828793,4.05E-06,1.27683E-06,3.60E-05,0.0157633,0.0150683,0.001182735,0.0320557,3.53E-05,4.94E-04,0.46777,2.98E-09,0.000404439,1.06257E-06,0.468705
374.3554,36.03795,41.69215,43.61154,0.098316,0.04333702,0.388283,2.44E-07,0,3.01E-15,7.28012E-05,0.0346571,0.0552115,0.0899416,2.83E-06,6.23878E-07,6.02E-06,0.01153082,0.0235449,0.001897376,0.0369825,2.47E-05,2.78E-04,0.360017,7.15878E-08,0.000715131,2.17464E-06,0.361037
377.22,35.74372,41.5637,42.61624,0.0992652,0.0506762,0.219747,1.71E-07,0,4.04E-16,3.88054E-05,0.0242996,0.0750115,0.09935,1.98E-06,3.04835E-07,1.01E-06,0.007811195,0.0343521,0.003035024,0.0452016,1.73E-05,1.57E-04,0.182707,1.71352E-06,0.001261612,4.45058E-06,0.184149
380.085,35.44284,41.40996,42.16502,0.104838,0.055411,0.0633421,1.19E-07,0,0.00E+00,2.06736E-05,0.0158247,0.0938953,0.109741,1.38E-06,1.48947E-07,1.68E-07,0.004968662,0.0459091,0.004832528,0.055712,1.21E-05,8.86E-05,0.0596401,4.06432E-05,0.002216777,9.10829E-06,0.0620072
382.95,35.15019,41.24566,42.11841,0.115796,0.0623022,0.001852351,8.34E-08,0,0,1.10E-05,0.009766678,0.108403,0.118181,9.68E-07,7.27771E-08,2.80E-08,0.003019758,0.0555308,0.007639286,0.0661909,8.45E-06,4.99E-05,0.0156097,0.000920827,0.003867968,1.86399E-05,0.02047554
385.814,34.92118,41.07043,42.05469,0.123164,0.0675109,0.0266972,5.83E-08,0,0,5.86E-06,0.005816084,0.111624,0.117446,6.77E-07,3.55599E-08,4.68E-09,0.001780907,0.0606781,0.0119421,0.07440187,5.91E-06,2.82E-05,3.81E-03,0.0119187,0.006668477,3.8143E-05,0.0224744
388.679,34.90087,40.84614,41.96707,0.0810547,0.0756877,0.03569005,4.07E-08,0,0,3.12E-06,0.003386812,0.0815517,0.0849416,4.73E-07,1.7375E-08,7.81E-10,0.001030872,0.0602108,0.018356,0.0795981,4.13E-06,1.59E-05,9.16E-04,0.02257594,0.0112671,7.8041E-05,0.0348572
391.544,34.85423,40.63785,41.86317,0.0295613,0.0817979,0.0442774,2.85E-08,0,0,1.66E-06,0.001945802,0.027193,0.0291404,3.31E-07,8.48964E-09,1.30E-10,5.90E-04,0.054661,0.0275278,0.0827792,2.89E-06,8.95E-06,2.19E-04,0.0194248,0.0184264,0.000159623,0.0382417
394.409,34.81166,40.38002,41.72166,0.00621837,0.0906651,0.05316077,1.99E-08,0,0,8.85E-07,0.00110908,0.004975709,0.006085694,2.31E-07,4.14814E-09,2.18E-11,3.36E-04,0.0457352,0.0398935,0.0859645,2.02E-06,5.05E-06,5.23E-05,0.0142333,0.0286743,0.000326283,0.0432932
397.273,34.78077,40.12164,41.5574,0.01071599,0.0944626,0.05611617,1.39E-08,0,0,4.71E-07,0.000629261,7.70E-04,0.001399437,1.62E-07,2.02683E-09,3.63E-12,1.90E-04,0.03556572,0.0553047,0.0910608,1.41E-06,2.85E-06,1.25E-05,0.009183451,0.0416244,0.000666089,0.0514906
400.138,34.73202,39.83609,41.40451,0.011266,0.103776,0.062694,9.73E-09,0,0,2.51E-07,0.00035608,1.15E-04,0.000471658,1.13E-07,9.90334E-10,6.06E-13,1.08E-04,0.0259811,0.072729,0.0988178,9.86E-07,1.61E-06,2.98E-06,0.005319966,0.0553727,0.001356225,0.0620545
403.003,34.68845,39.5335,41.21109,0.0102089,0.110252,0.0682762,6.80E-09,0,0,1.34E-07,0.00020119,1.72E-05,0.000218487,7.90E-08,4.8389E-10,1.01215E-13,6.07E-05,0.0180541,0.0903373,0.108452,6.90E-07,9.05E-07,7.12E-07,0.002858641,0.06681222,0.002746784,0.07242
405.8676,34.65757,39.2262,41.01587,0.0125953,0.117363,0.07593664,4.75E-09,0,0,7.11E-08,1.14E-04,2.55E-06,1.16E-04,5.52E-08,2.36434E-10,1.68697E-14,3.43E-05,0.0120855,0.105823,0.117943,4.82E-07,5.10E-07,1.70E-07,0.001468315,0.0729665,0.005504393,0.0799404
408.732,34.61501,38.8635,40.79046,0.0123114,0.128018,0.082503,3.32E-09,0,0,3.79E-08,6.41E-05,3.78E-07,6.45E-05,3.86E-08,1.15525E-10,2.83314E-15,1.93E-05,0.007879361,0.114872,0.122771,3.37E-07,2.88E-07,4.06E-08,0.000735855,0.0722211,0.0108043,0.0837619
411.597,34.56992,38.51629,40.53869,0.0138643,0.105656,0.0881438,2.32E-09,0,0,2.02E-08,3.61E-05,5.60E-08,3.62E-05,2.70E-08,5.64468E-11,5.15124E-16,1.09E-05,0.005046255,0.101162,0.106219,2.36E-07,1.62E-07,9.69E-09,0.000364115,0.0647694,0.020403,0.0855369
414.462,34.51746,38.22378,40.29497,0.01417519,0.0518746,0.0915637,1.62E-09,0,0,1.07E-08,2.04E-05,8.29E-09,2.04E-05,1.89E-08,2.75806E-11,1.28783E-16,6.15E-06,0.003194252,4.71E-02,0.0503451,1.65E-07,9.15E-08,2.31E-09,1.79E-04,0.0525724,0.0360528,0.0888045
417.327,34.46447,38.17109,40.02283,0.0143045,0.010693,0.0993192,1.13E-09,0,0,5.72E-09,1.15E-05,1.23E-09,1.15E-05,1.32E-08,1.34762E-11,0,3.47E-06,0.002006818,1.02E-02,0.0122441,1.15E-07,5.16E-08,5.52E-10,8.77E-05,0.0387586,0.0576571,0.0965036
420.191,34.43081,38.14541,39.73251,0.01608785,0.007186601,0.106915,7.93E-10,0,0,3.04E-09,6.48E-06,1.82E-10,6.49E-06,9.21E-09,6.58462E-12,0,1.96E-06,1.25E-03,1.65E-03,2.91E-03,8.05E-08,2.91E-08,1.32E-10,4.29E-05,0.0262713,0.0814743,0.107789
423.056,34.37638,38.1244,39.42166,0.0148337,0.006850898,0.115974,5.55E-10,0,0,1.62E-09,3.66E-06,2.70E-11,3.66E-06,6.44E-09,3.21729E-12,0,1.10E-06,7.82E-04,2.50E-04,1.03E-03,5.62E-08,1.64E-08,3.15E-11,2.10E-05,0.0166807,0.101727,0.118429
425.921,34.36844,38.10163,39.08139,0.0123129,0.003674636,0.11959,3.88E-10,0,0,8.63E-10,2.06E-06,3.99E-12,2.06E-06,4.50E-09,1.57205E-12,0,6.22E-07,4.87E-04,3.75E-05,5.25E-04,3.93E-08,9.25E-09,7.51E-12,1.03E-05,0.0101174,0.113797,0.123925
428.786,34.32339,38.09934,38.74113,0.009289129,0.007132188,0.120073,2.71E-10,0,0,4.59E-10,1.16E-06,5.91E-13,1.16E-06,3.15E-09,7.68181E-13,0,3.51E-07,3.03E-04,5.58E-06,3.08E-04,2.75E-08,5.2145E-09,1.79E-12,5.01E-06,0.005957598,0.111282,0.117245
431.6503,34.27567,38.0679,38.42522,0.0128647,0.0107969,0.0880378,1.89E-10,0,0,2.45E-10,6.55E-07,8.75685E-14,6.56E-07,2.20E-09,3.7526E-13,0,1.98E-07,1.88E-04,8.29E-07,1.89E-04,1.92E-08,2.94025E-09,4.28E-13,2.45E-06,0.003445047,8.01E-02,0.0835969
434.515,34.24023,38.03927,38.19338,0.01266277,0.01194263,0.0378993,1.32E-10,0,0,1.30E-10,3.70E-07,1.29628E-14,3.70E-07,1.54E-09,1.83351E-13,0,1.11E-07,1.17E-04,1.23E-07,1.17E-04,1.34E-08,1.65789E-09,1.02E-13,1.20E-06,0.001970852,3.26E-02,0.0346014
437.38,34.19119,38.0082,38.15561,0.0139114,0.0097582,0.003356174,9.25E-11,0,0,6.93E-11,2.08E-07,1.92734E-15,2.09E-07,1.07E-09,8.95817E-14,0,6.28E-08,7.24E-05,1.82E-08,7.25E-05,9.39E-09,9.34818E-10,2.44E-14,5.85E-07,1.12E-03,8.34E-03,9.46E-03
440.245,34.13308,37.98151,38.13517,0.0107392,0.008325042,0.003171512,6.47E-11,0,0,3.69E-11,1.17E-07,2.79775E-16,1.18E-07,7.51E-10,4.36984E-14,0,3.54E-08,4.49E-05,2.71E-09,4.50E-05,6.56E-09,5.27106E-10,5.77E-15,2.86E-07,6.35E-04,1.79E-03,2.43E-03
443.109,34.10836,37.95602,38.12403,0.008157079,0.008925495,0.003746466,4.52E-11,0,0,1.97E-11,6.63E-08,3.10862E-17,6.63E-08,5.25E-10,2.1303E-14,0,2.00E-08,2.79E-05,4.01E-10,2.79E-05,4.59E-09,2.97214E-10,1.39E-15,1.40E-07,3.59E-04,3.70E-04,7.29E-04
445.974,34.07532,37.93715,38.11444,0.009582659,0.0117996,0.004447062,3.16E-11,0,0,1.05E-11,3.74E-08,0,3.74E-08,3.67E-10,1.03784E-14,0,1.13E-08,1.73E-05,5.93847E-11,1.73E-05,3.21E-09,1.67587E-10,3.46E-16,6.83E-08,2.03E-04,7.56E-05,2.78E-04
448.839,34.04558,37.89486,38.09632,0.008919424,0.009415261,0.000959625,2.21E-11,0,0,5.57E-12,2.11E-08,0,2.11E-08,2.57E-10,5.09814E-15,0,6.35E-09,1.07E-05,8.79694E-12,1.07E-05,2.24E-09,9.44959E-11,1.15463E-16,3.33E-08,1.14E-04,1.54E-05,1.30E-04
451.704,33.99666,37.8759,38.10563,0.009619634,0.006848969,9.96154E-06,1.54E-11,0,0,2.97E-12,1.19E-08,0,1.19E-08,1.79E-10,2.54907E-15,0,3.58E-09,6.66E-06,1.30303E-12,6.66E-06,1.57E-09,5.32824E-11,0,1.63E-08,6.45E-05,3.14E-06,6.77E-05
454.568,33.98406,37.85315,38.09987,0.008510175,0.00938494,0.002835179,1.08E-11,0,0,1.58E-12,6.70E-09,0,6.71E-09,1.25E-10,1.27454E-15,0,2.02E-09,4.13E-06,1.92989E-13,4.13E-06,1.10E-09,3.00439E-11,0,7.96E-09,3.64E-05,6.39E-07,3.70E-05
457.433,33.95311,37.82874,38.08525,0.0116747,0.009477346,0.003429657,7.55E-12,0,0,8.41E-13,3.78E-09,0,3.78E-09,8.76E-11,5.4623E-16,0,1.14E-09,2.56E-06,2.8575E-14,2.56E-06,7.65E-10,1.69405E-11,0,3.89E-09,2.05E-05,1.30E-07,2.07E-05
460.298,33.93318,37.80098,38.08385,0.0113442,0.008213377,0.003271113,5.28E-12,0,0,4.48E-13,2.13E-09,0,2.13E-09,6.13E-11,3.64153E-16,0,6.42E-10,1.59E-06,4.22975E-15,1.59E-06,5.35E-10,9.55211E-12,0,1.90E-09,1.16E-05,2.65E-08,1.16E-05
463.1625,33.90331,37.78009,38.06892,0.009095361,0.006677558,0.003573851,3.69E-12,0,0,2.38E-13,1.20E-09,0,1.20E-09,4.28E-11,1.82077E-16,0,3.62E-10,9.86E-07,6.32809E-16,9.86E-07,3.74E-10,5.38601E-12,0,9.29E-10,6.53E-06,5.40E-09,6.53E-06
466.027,33.87549,37.75681,38.05963,0.008719333,0.006129952,0.002518741,2.58E-12,0,0,1.27E-13,6.77E-10,0,6.80E-10,2.99E-11,0,0,2.04E-10,6.12E-07,9.99183E-17,6.12E-07,2.61E-10,3.03697E-12,0,4.54E-10,3.68E-06,1.10E-09,3.68E-06
468.892,33.86237,37.74127,38.05821,0.010491,0.00615907,0.004324487,1.80E-12,0,0,6.76E-14,3.82E-10,0,3.84E-10,2.09E-11,0,0,1.15E-10,3.79E-07,0,3.80E-07,1.83E-10,1.71251E-12,0,2.22E-10,2.07E-06,2.23803E-10,2.08E-06
471.757,33.81779,37.7169,38.03152,0.0145988,0.00820481,0.003763024,1.26E-12,0,0,3.60E-14,2.15E-10,0,2.17E-10,1.46E-11,0,0,6.49E-11,2.35E-07,0,2.35E-07,1.28E-10,9.65585E-13,0,1.08E-10,1.17E-06,4.55698E-11,1.17E-06
474.621,33.78893,37.69653,38.02915,0.008571505,0.007963065,0.00302293,8.80E-13,0,0,1.92E-14,1.21E-10,0,1.22E-10,1.02E-11,0,0,3.66E-11,1.46E-07,0,1.46E-07,8.93E-11,5.44469E-13,0,5.29E-11,6.60E-07,9.27865E-12,6.60E-07
477.486,33.77478,37.67569,38.02198,0.009048391,0.006275586,0.004430745,6.15E-13,0,0,1.02E-14,6.84E-11,0,6.91E-11,7.15E-12,0,0,2.06E-11,9.06E-08,0,9.06E-08,6.24E-11,3.07003E-13,0,2.59E-11,3.72E-07,1.88927E-12,3.72E-07
480.351,33.7559,37.65569,38.00445,0.00759351,0.00523004,0.003936428,4.30E-13,0,0,5.43E-15,3.86E-11,0,3.90E-11,4.99E-12,0,0,1.16E-11,5.62E-08,0,5.62E-08,4.36E-11,1.73115E-13,0,1.26E-11,2.10E-07,3.84682E-13,2.10E-07
483.216,33.72705,37.64156,38.00251,0.0135685,0.006129786,0.001428394,3.01E-13,0,0,2.89E-15,2.18E-11,0,2.21E-11,3.49E-12,0,0,6.56E-12,3.49E-08,0,3.49E-08,3.05E-11,9.75797E-14,0,6.18E-12,1.18E-07,7.83273E-14,1.18E-07
486.08,33.69086,37.62035,37.988,0.0136441,0.009169195,0.00404598,2.10E-13,0,0,1.54E-15,1.23E-11,0,1.25E-11,2.44E-12,0,0,3.70E-12,2.16E-08,0,2.16E-08,2.13E-11,5.51115E-14,0,3.02E-12,6.67E-08,1.59472E-14,6.67E-08
488.9452,33.67837,37.59356,37.97886,0.0103248,0.008646687,0.005670698,1.47E-13,0,0,8.19E-16,6.92E-12,0,7.07E-12,1.71E-12,0,0,2.09E-12,1.34E-08,0,1.34E-08,1.49E-11,3.09597E-14,0,1.47E-12,3.76E-08,3.23741E-15,3.76E-08
491.81,33.64104,37.56698,37.95946,0.01467,0.0119304,0.0130624,1.03E-13,0,0,4.40E-16,3.90E-12,0,4.00E-12,1.19E-12,0,0,1.18E-12,8.32E-09,0,8.33E-09,1.04E-11,1.7506E-14,0,7.20E-13,2.12E-08,6.59472E-16,2.12E-08
494.675,33.6169,37.55991,37.94058,0.0112889,0.004523939,0.005058015,7.18E-14,0,0,2.33E-16,2.20E-12,0,2.27E-12,8.34E-13,0,0,6.63E-13,5.16E-09,0,5.16E-09,7.28E-12,9.88765E-15,0,3.52E-13,1.20E-08,1.19904E-16,1.20E-08
497.539,33.59171,37.53872,37.93379,-0.0696979,-0.0754487,-0.07624278,5.02E-14,0,0,1.27E-16,1.24E-12,0,1.29E-12,5.83E-13,0,0,3.74E-13,3.20E-09,0,3.20E-09,5.09E-12,5.51115E-15,0,1.72E-13,6.74E-09,2.9976E-17,6.75E-09